#time,accel_x,accel_y,accel_z
36.689655,1703.689691,9628.718142,133.998066
36.692245,1684.54711,9686.145885,57.427742
36.694835,1780.260014,9513.862658,95.712904
36.697426,1761.117434,9686.145885,38.285162
36.700016,1780.260014,9628.718142,38.285162
36.702607,1665.40453,9571.2904,57.427742
36.705197,1722.832272,9724.431046,114.855485
36.707787,1665.40453,9743.573627,76.570323
36.710378,1703.689691,9686.145885,76.570323
36.712968,1665.40453,9724.431046,133.998066
36.715558,1703.689691,9686.145885,133.998066
36.718149,1741.974853,9590.432981,76.570323
36.720739,1665.40453,9628.718142,114.855485
36.723329,1741.974853,9647.860723,133.998066
36.72592,1761.117434,9628.718142,-38.285162
36.72851,1837.687757,9552.147819,38.285162
36.731101,1684.54711,9552.147819,172.283227
36.733691,1741.974853,9609.575562,-57.427742
36.736281,1703.689691,9590.432981,0
36.738872,1741.974853,9609.575562,191.425808
36.741462,1703.689691,9590.432981,57.427742
36.744052,1684.54711,9609.575562,133.998066
36.746643,1799.402595,9571.2904,114.855485
36.749233,1761.117434,9513.862658,76.570323
36.751823,1761.117434,9590.432981,19.142581
36.754414,1780.260014,9609.575562,191.425808
36.757004,1722.832272,9590.432981,38.285162
36.759594,1665.40453,9628.718142,172.283227
36.762185,1665.40453,9628.718142,248.85355
36.764775,1703.689691,9647.860723,76.570323
36.767366,1646.261949,9667.003304,95.712904
36.769956,1741.974853,9628.718142,153.140646
36.772546,1761.117434,9647.860723,76.570323
36.775137,1646.261949,9647.860723,38.285162
36.777727,1684.54711,9628.718142,153.140646
36.780317,1722.832272,9628.718142,133.998066
36.782908,1665.40453,9705.288466,114.855485
36.785498,1741.974853,9647.860723,172.283227
36.788088,1799.402595,9533.005238,57.427742
36.790679,1684.54711,9628.718142,38.285162
36.793268,1684.54711,9686.145885,38.285162
36.795857,1761.117434,9647.860723,172.283227
36.798447,1780.260014,9571.2904,19.142581
36.801036,1722.832272,9590.432981,133.998066
36.803625,1741.974853,9647.860723,133.998066
36.806214,1722.832272,9475.577496,172.283227
36.808804,1722.832272,9628.718142,95.712904
36.811393,1761.117434,9628.718142,76.570323
36.813982,1703.689691,9705.288466,76.570323
36.816571,1741.974853,9609.575562,153.140646
36.81916,1722.832272,9667.003304,153.140646
36.82175,1684.54711,9686.145885,133.998066
36.824339,1665.40453,9590.432981,114.855485
36.826928,1627.119368,9647.860723,114.855485
36.829517,1646.261949,9647.860723,114.855485
36.832107,1703.689691,9686.145885,76.570323
36.834696,1646.261949,9647.860723,229.71097
36.837285,1722.832272,9628.718142,76.570323
36.839874,1684.54711,9609.575562,76.570323
36.842464,1741.974853,9590.432981,172.283227
36.845053,1722.832272,9667.003304,114.855485
36.847642,1741.974853,9647.860723,57.427742
36.850231,1684.54711,9647.860723,133.998066
36.852821,1646.261949,9647.860723,57.427742
36.85541,1761.117434,9590.432981,-38.285162
36.857999,1703.689691,9686.145885,38.285162
36.860588,1741.974853,9513.862658,95.712904
36.863178,1761.117434,9590.432981,95.712904
36.865767,1703.689691,9571.2904,76.570323
36.868356,1722.832272,9571.2904,133.998066
36.870945,1741.974853,9590.432981,0
36.873535,1684.54711,9647.860723,153.140646
36.876124,1646.261949,9628.718142,57.427742
36.878713,1741.974853,9647.860723,153.140646
36.881302,1741.974853,9647.860723,133.998066
36.883892,1722.832272,9724.431046,76.570323
36.886481,1818.545176,9628.718142,57.427742
36.88907,1703.689691,9628.718142,57.427742
36.891659,1741.974853,9647.860723,133.998066
36.894249,1761.117434,9571.2904,76.570323
36.896777,1761.117434,9609.575562,76.570323
36.899306,1722.832272,9667.003304,133.998066
36.901834,1818.545176,9609.575562,57.427742
36.904362,1703.689691,9647.860723,76.570323
36.906891,1780.260014,9609.575562,153.140646
36.909419,1722.832272,9628.718142,76.570323
36.911948,1741.974853,9647.860723,114.855485
36.914476,1665.40453,9590.432981,172.283227
36.917005,1741.974853,9647.860723,76.570323
36.919533,1741.974853,9647.860723,133.998066
36.922062,1741.974853,9686.145885,210.568389
36.92459,1799.402595,9686.145885,38.285162
36.927119,1703.689691,9724.431046,153.140646
36.929647,1761.117434,9628.718142,172.283227
36.932176,1818.545176,9571.2904,57.427742
36.934704,1741.974853,9647.860723,172.283227
36.937233,1761.117434,9590.432981,172.283227
36.939761,1722.832272,9628.718142,191.425808
36.94229,1703.689691,9667.003304,95.712904
36.944818,1646.261949,9705.288466,172.283227
36.947347,1799.402595,9667.003304,191.425808
36.949875,1646.261949,9609.575562,95.712904
36.952404,1665.40453,9667.003304,76.570323
36.954932,1741.974853,9552.147819,133.998066
36.957461,1741.974853,9609.575562,76.570323
36.959989,1703.689691,9647.860723,95.712904
36.962518,1722.832272,9667.003304,153.140646
36.965046,1722.832272,9590.432981,76.570323
36.967575,1741.974853,9552.147819,172.283227
36.970103,1703.689691,9590.432981,95.712904
36.972632,1722.832272,9552.147819,-57.427742
36.97516,1799.402595,9628.718142,114.855485
36.977689,1761.117434,9628.718142,19.142581
36.980217,1703.689691,9590.432981,0
36.982746,1761.117434,9647.860723,133.998066
36.985274,1761.117434,9590.432981,172.283227
36.987803,1684.54711,9647.860723,133.998066
36.990331,1684.54711,9647.860723,76.570323
36.992859,1741.974853,9647.860723,153.140646
36.995388,1703.689691,9590.432981,38.285162
36.997929,1799.402595,9762.716208,114.855485
37.000471,1722.832272,9667.003304,191.425808
37.003012,1646.261949,9724.431046,172.283227
37.005553,1722.832272,9647.860723,57.427742
37.008095,1703.689691,9705.288466,133.998066
37.010636,1703.689691,9686.145885,133.998066
37.013177,1780.260014,9686.145885,76.570323
37.015719,1722.832272,9647.860723,191.425808
37.01826,1684.54711,9667.003304,210.568389
37.020801,1665.40453,9609.575562,76.570323
37.023343,1703.689691,9705.288466,76.570323
37.025884,1684.54711,9686.145885,114.855485
37.028425,1799.402595,9628.718142,76.570323
37.030967,1665.40453,9628.718142,114.855485
37.033508,1799.402595,9590.432981,114.855485
37.036049,1761.117434,9590.432981,-38.285162
37.038591,1703.689691,9628.718142,57.427742
37.041132,1799.402595,9647.860723,133.998066
37.043673,1780.260014,9590.432981,0
37.046215,1684.54711,9513.862658,153.140646
37.048756,1703.689691,9667.003304,153.140646
37.051297,1722.832272,9628.718142,76.570323
37.053839,1646.261949,9686.145885,76.570323
37.05638,1780.260014,9628.718142,248.85355
37.058921,1780.260014,9647.860723,133.998066
37.061463,1684.54711,9628.718142,153.140646
37.064004,1761.117434,9724.431046,153.140646
37.066545,1780.260014,9647.860723,114.855485
37.069087,1818.545176,9667.003304,153.140646
37.071628,1607.976787,9762.716208,191.425808
37.074169,1818.545176,9667.003304,95.712904
37.076711,1722.832272,9667.003304,153.140646
37.079252,1741.974853,9667.003304,172.283227
37.081793,1741.974853,9647.860723,133.998066
37.084335,1722.832272,9609.575562,57.427742
37.086876,1761.117434,9628.718142,191.425808
37.089417,1761.117434,9647.860723,76.570323
37.091959,1722.832272,9667.003304,95.712904
37.0945,1780.260014,9647.860723,133.998066
37.097041,1703.689691,9513.862658,57.427742
37.099591,1780.260014,9628.718142,133.998066
37.102142,1741.974853,9628.718142,210.568389
37.104692,1780.260014,9647.860723,133.998066
37.107242,1646.261949,9647.860723,19.142581
37.109792,1741.974853,9647.860723,172.283227
37.112342,1741.974853,9647.860723,153.140646
37.114892,1646.261949,9647.860723,-38.285162
37.117442,1799.402595,9628.718142,114.855485
37.119992,1722.832272,9590.432981,57.427742
37.122542,1741.974853,9628.718142,-38.285162
37.125092,1722.832272,9571.2904,76.570323
37.127642,1741.974853,9628.718142,76.570323
37.130192,1665.40453,9609.575562,19.142581
37.132742,1627.119368,9609.575562,76.570323
37.135293,1722.832272,9628.718142,76.570323
37.137843,1646.261949,9724.431046,57.427742
37.140393,1684.54711,9724.431046,133.998066
37.142943,1703.689691,9628.718142,95.712904
37.145493,1761.117434,9686.145885,38.285162
37.148043,1684.54711,9724.431046,153.140646
37.150593,1780.260014,9628.718142,153.140646
37.153143,1646.261949,9609.575562,114.855485
37.155693,1703.689691,9628.718142,-38.285162
37.158243,1761.117434,9590.432981,76.570323
37.160793,1722.832272,9628.718142,76.570323
37.163343,1780.260014,9590.432981,19.142581
37.165893,1722.832272,9647.860723,76.570323
37.168444,1703.689691,9609.575562,38.285162
37.170994,1722.832272,9571.2904,57.427742
37.173544,1722.832272,9609.575562,133.998066
37.176094,1761.117434,9609.575562,153.140646
37.178644,1780.260014,9552.147819,0
37.181194,1684.54711,9628.718142,210.568389
37.183744,1818.545176,9590.432981,38.285162
37.186294,1761.117434,9590.432981,76.570323
37.188844,1684.54711,9628.718142,133.998066
37.191394,1741.974853,9609.575562,153.140646
37.193944,1665.40453,9609.575562,172.283227
37.196494,1741.974853,9724.431046,153.140646
37.199044,1627.119368,9686.145885,172.283227
37.201602,1818.545176,9647.860723,76.570323
37.204159,1665.40453,9628.718142,153.140646
37.206716,1684.54711,9590.432981,19.142581
37.209273,1780.260014,9609.575562,133.998066
37.21183,1761.117434,9590.432981,38.285162
37.214387,1761.117434,9590.432981,76.570323
37.216944,1722.832272,9590.432981,38.285162
37.219502,1761.117434,9590.432981,76.570323
37.222059,1684.54711,9724.431046,153.140646
37.224616,1722.832272,9552.147819,133.998066
37.227173,1703.689691,9667.003304,76.570323
37.22973,1722.832272,9609.575562,153.140646
37.232287,1703.689691,9647.860723,95.712904
37.234844,1741.974853,9590.432981,133.998066
37.237402,1703.689691,9590.432981,76.570323
37.239959,1703.689691,9590.432981,76.570323
37.242516,1665.40453,9724.431046,133.998066
37.245073,1780.260014,9609.575562,191.425808
37.24763,1646.261949,9686.145885,133.998066
37.250187,1722.832272,9552.147819,76.570323
37.252744,1741.974853,9609.575562,191.425808
37.255302,1761.117434,9609.575562,133.998066
37.257859,1684.54711,9647.860723,133.998066
37.260416,1741.974853,9647.860723,95.712904
37.262973,1684.54711,9590.432981,114.855485
37.26553,1569.691626,9686.145885,133.998066
37.268087,1684.54711,9647.860723,153.140646
37.270644,1684.54711,9686.145885,133.998066
37.273202,1703.689691,9628.718142,76.570323
37.275759,1607.976787,9762.716208,133.998066
37.278316,1780.260014,9628.718142,38.285162
37.280873,1684.54711,9667.003304,133.998066
37.28343,1646.261949,9590.432981,114.855485
37.285987,1741.974853,9762.716208,114.855485
37.288544,1665.40453,9667.003304,76.570323
37.291102,1684.54711,9705.288466,114.855485
37.293659,1684.54711,9686.145885,210.568389
37.296216,1646.261949,9724.431046,95.712904
37.298773,1684.54711,9705.288466,172.283227
37.30133,1684.54711,9647.860723,153.140646
37.303892,1684.54711,9628.718142,114.855485
37.306453,1646.261949,9686.145885,133.998066
37.309014,1703.689691,9743.573627,153.140646
37.311576,1627.119368,9743.573627,19.142581
37.314137,1703.689691,9667.003304,153.140646
37.316699,1761.117434,9590.432981,76.570323
37.31926,1703.689691,9590.432981,133.998066
37.321821,1761.117434,9590.432981,38.285162
37.324383,1741.974853,9590.432981,19.142581
37.326944,1799.402595,9571.2904,95.712904
37.329506,1703.689691,9590.432981,76.570323
37.332067,1684.54711,9647.860723,133.998066
37.334628,1646.261949,9667.003304,114.855485
37.33719,1722.832272,9628.718142,76.570323
37.339751,1761.117434,9705.288466,76.570323
37.342313,1722.832272,9647.860723,133.998066
37.344874,1703.689691,9686.145885,76.570323
37.347435,1646.261949,9647.860723,95.712904
37.349997,1684.54711,9686.145885,133.998066
37.352558,1684.54711,9705.288466,95.712904
37.35512,1780.260014,9724.431046,133.998066
37.357681,1741.974853,9628.718142,191.425808
37.360242,1799.402595,9667.003304,114.855485
37.362804,1665.40453,9590.432981,114.855485
37.365365,1780.260014,9609.575562,191.425808
37.367927,1741.974853,9647.860723,172.283227
37.370488,1761.117434,9628.718142,76.570323
37.373049,1646.261949,9628.718142,95.712904
37.375611,1741.974853,9590.432981,76.570323
37.378172,1646.261949,9647.860723,95.712904
37.380734,1684.54711,9724.431046,248.85355
37.383295,1799.402595,9552.147819,133.998066
37.385856,1684.54711,9628.718142,172.283227
37.388418,1780.260014,9667.003304,191.425808
37.390979,1684.54711,9647.860723,133.998066
37.393541,1665.40453,9686.145885,114.855485
37.396102,1780.260014,9628.718142,248.85355
37.398663,1684.54711,9686.145885,95.712904
37.401225,1722.832272,9647.860723,153.140646
37.403786,1722.832272,9667.003304,210.568389
37.40635,1780.260014,9647.860723,133.998066
37.408914,1703.689691,9609.575562,38.285162
37.411477,1703.689691,9686.145885,191.425808
37.414041,1703.689691,9628.718142,0
37.416605,1684.54711,9552.147819,95.712904
37.419168,1684.54711,9647.860723,172.283227
37.421732,1799.402595,9647.860723,133.998066
37.424296,1607.976787,9552.147819,-19.142581
37.426859,1646.261949,9609.575562,57.427742
37.429423,1741.974853,9590.432981,38.285162
37.431987,1627.119368,9647.860723,57.427742
37.43455,1646.261949,9609.575562,57.427742
37.437114,1818.545176,9571.2904,172.283227
37.439678,1722.832272,9628.718142,76.570323
37.442241,1684.54711,9609.575562,133.998066
37.444805,1780.260014,9609.575562,210.568389
37.447369,1684.54711,9686.145885,-38.285162
37.449932,1703.689691,9686.145885,153.140646
37.452496,1627.119368,9647.860723,95.712904
37.45506,1780.260014,9590.432981,76.570323
37.457623,1741.974853,9590.432981,76.570323
37.460187,1722.832272,9628.718142,210.568389
37.462751,1665.40453,9552.147819,133.998066
37.465314,1741.974853,9647.860723,172.283227
37.467878,1722.832272,9686.145885,191.425808
37.470442,1607.976787,9762.716208,133.998066
37.473005,1780.260014,9590.432981,248.85355
37.475569,1703.689691,9705.288466,76.570323
37.478133,1703.689691,9628.718142,95.712904
37.480696,1741.974853,9628.718142,133.998066
37.48326,1646.261949,9686.145885,133.998066
37.485824,1684.54711,9628.718142,172.283227
37.488387,1761.117434,9628.718142,76.570323
37.490951,1665.40453,9686.145885,191.425808
37.493515,1665.40453,9628.718142,114.855485
37.496078,1780.260014,9667.003304,153.140646
37.498642,1741.974853,9647.860723,114.855485
37.501206,1818.545176,9590.432981,191.425808
37.503769,1780.260014,9609.575562,57.427742
37.506333,1684.54711,9628.718142,210.568389
37.508899,1684.54711,9647.860723,248.85355
37.511464,1761.117434,9609.575562,38.285162
37.51403,1741.974853,9609.575562,153.140646
37.516596,1684.54711,9667.003304,191.425808
37.519161,1722.832272,9667.003304,76.570323
37.521727,1741.974853,9667.003304,153.140646
37.524292,1607.976787,9686.145885,172.283227
37.526858,1780.260014,9628.718142,57.427742
37.529424,1646.261949,9705.288466,133.998066
37.531989,1741.974853,9667.003304,172.283227
37.534555,1722.832272,9667.003304,95.712904
37.537121,1665.40453,9667.003304,191.425808
37.539686,1741.974853,9686.145885,210.568389
37.542252,1741.974853,9590.432981,133.998066
37.544818,1780.260014,9609.575562,0
37.547383,1761.117434,9667.003304,153.140646
37.549949,1818.545176,9609.575562,57.427742
37.552515,1741.974853,9609.575562,57.427742
37.55508,1741.974853,9647.860723,133.998066
37.557646,1741.974853,9571.2904,57.427742
37.560212,1780.260014,9513.862658,57.427742
37.562777,1703.689691,9628.718142,76.570323
37.565343,1818.545176,9628.718142,133.998066
37.567909,1646.261949,9609.575562,57.427742
37.570474,1722.832272,9724.431046,114.855485
37.57304,1818.545176,9590.432981,76.570323
37.575606,1741.974853,9609.575562,172.283227
37.578171,1607.976787,9705.288466,153.140646
37.580737,1780.260014,9628.718142,76.570323
37.583303,1665.40453,9628.718142,95.712904
37.585868,1684.54711,9686.145885,114.855485
37.588434,1780.260014,9647.860723,133.998066
37.590999,1607.976787,9667.003304,57.427742
37.593565,1684.54711,9667.003304,172.283227
37.596131,1799.402595,9609.575562,133.998066
37.598696,1588.834206,9724.431046,114.855485
37.601262,1703.689691,9724.431046,114.855485
37.603828,1684.54711,9628.718142,133.998066
37.606393,1684.54711,9647.860723,153.140646
37.608959,1703.689691,9686.145885,76.570323
39.226983,1646.261949,9609.575562,-76.570323
39.229532,1684.54711,9647.860723,133.998066
39.232081,1684.54711,9552.147819,133.998066
39.23463,1703.689691,9590.432981,57.427742
39.237179,1684.54711,9686.145885,153.140646
39.239729,1684.54711,9667.003304,133.998066
39.242278,1646.261949,9647.860723,38.285162
39.244827,1703.689691,9609.575562,133.998066
39.247376,1780.260014,9647.860723,133.998066
39.249925,1703.689691,9628.718142,0
39.252474,1722.832272,9609.575562,0
39.255023,1741.974853,9667.003304,172.283227
39.257573,1799.402595,9609.575562,133.998066
39.260122,1741.974853,9571.2904,19.142581
39.262671,1646.261949,9705.288466,133.998066
39.26522,1761.117434,9609.575562,133.998066
39.267769,1818.545176,9628.718142,133.998066
39.270318,1607.976787,9628.718142,95.712904
39.272868,1722.832272,9647.860723,267.996131
39.275417,1703.689691,9590.432981,19.142581
39.277966,1722.832272,9647.860723,133.998066
39.280515,1799.402595,9552.147819,191.425808
39.283064,1722.832272,9628.718142,57.427742
39.285613,1703.689691,9628.718142,76.570323
39.288162,1780.260014,9590.432981,191.425808
39.290712,1761.117434,9590.432981,19.142581
39.293261,1741.974853,9647.860723,76.570323
39.29581,1780.260014,9647.860723,153.140646
39.298359,1722.832272,9590.432981,57.427742
39.300908,1741.974853,9667.003304,133.998066
39.303457,1761.117434,9667.003304,210.568389
39.306006,1818.545176,9590.432981,19.142581
39.308556,1722.832272,9590.432981,76.570323
39.311105,1703.689691,9628.718142,76.570323
39.313654,1741.974853,9705.288466,114.855485
39.316203,1741.974853,9609.575562,133.998066
39.318753,1741.974853,9686.145885,229.71097
39.321304,1722.832272,9686.145885,76.570323
39.323854,1703.689691,9628.718142,76.570323
39.326405,1741.974853,9552.147819,191.425808
39.328955,1780.260014,9647.860723,133.998066
39.331505,1684.54711,9647.860723,133.998066
39.334056,1722.832272,9667.003304,172.283227
39.336606,1818.545176,9590.432981,76.570323
39.339157,1684.54711,9686.145885,95.712904
39.341707,1627.119368,9628.718142,114.855485
39.344257,1722.832272,9590.432981,57.427742
39.346808,1646.261949,9686.145885,133.998066
39.349358,1780.260014,9647.860723,133.998066
39.351909,1741.974853,9667.003304,133.998066
39.354459,1665.40453,9590.432981,153.140646
39.357009,1741.974853,9724.431046,133.998066
39.35956,1684.54711,9686.145885,76.570323
39.36211,1684.54711,9609.575562,76.570323
39.364661,1722.832272,9590.432981,76.570323
39.367211,1761.117434,9628.718142,133.998066
39.369761,1722.832272,9590.432981,57.427742
39.372312,1722.832272,9628.718142,76.570323
39.374862,1741.974853,9609.575562,133.998066
39.377413,1722.832272,9628.718142,76.570323
39.379963,1703.689691,9609.575562,76.570323
39.382513,1741.974853,9609.575562,133.998066
39.385064,1607.976787,9667.003304,95.712904
39.387614,1684.54711,9647.860723,76.570323
39.390165,1761.117434,9667.003304,210.568389
39.392715,1646.261949,9647.860723,0
39.395265,1780.260014,9647.860723,76.570323
39.397816,1741.974853,9609.575562,172.283227
39.400366,1761.117434,9628.718142,76.570323
39.402917,1722.832272,9686.145885,76.570323
39.405467,1741.974853,9647.860723,153.140646
39.408017,1627.119368,9628.718142,114.855485
39.410568,1741.974853,9686.145885,95.712904
39.413118,1780.260014,9609.575562,95.712904
39.415669,1722.832272,9628.718142,57.427742
39.418219,1761.117434,9552.147819,133.998066
39.42077,1684.54711,9609.575562,57.427742
39.423321,1780.260014,9647.860723,191.425808
39.425872,1703.689691,9590.432981,19.142581
39.428423,1722.832272,9667.003304,114.855485
39.430974,1799.402595,9628.718142,153.140646
39.433525,1722.832272,9647.860723,38.285162
39.436075,1684.54711,9724.431046,76.570323
39.438626,1741.974853,9609.575562,153.140646
39.441177,1703.689691,9590.432981,0
39.443728,1684.54711,9590.432981,153.140646
39.446279,1722.832272,9628.718142,76.570323
39.44883,1761.117434,9571.2904,0
39.451381,1722.832272,9628.718142,76.570323
39.453932,1761.117434,9667.003304,133.998066
39.456482,1722.832272,9590.432981,38.285162
39.459033,1741.974853,9705.288466,57.427742
39.461584,1761.117434,9724.431046,191.425808
39.464135,1703.689691,9590.432981,95.712904
39.466686,1722.832272,9628.718142,76.570323
39.469237,1722.832272,9667.003304,172.283227
39.471788,1703.689691,9628.718142,57.427742
39.474339,1703.689691,9667.003304,114.855485
39.47689,1684.54711,9647.860723,133.998066
39.47944,1818.545176,9571.2904,95.712904
39.481991,1703.689691,9590.432981,57.427742
39.484542,1722.832272,9647.860723,153.140646
39.487093,1761.117434,9590.432981,38.285162
39.489644,1741.974853,9590.432981,76.570323
39.492195,1684.54711,9590.432981,114.855485
39.494746,1741.974853,9628.718142,133.998066
39.497297,1684.54711,9647.860723,133.998066
39.499847,1722.832272,9667.003304,114.855485
39.502398,1741.974853,9647.860723,153.140646
39.504949,1741.974853,9609.575562,133.998066
39.5075,1741.974853,9647.860723,153.140646
39.510051,1741.974853,9590.432981,76.570323
39.512602,1684.54711,9647.860723,133.998066
39.515153,1665.40453,9590.432981,114.855485
39.517704,1703.689691,9590.432981,57.427742
39.520254,1684.54711,9609.575562,133.998066
39.522806,1703.689691,9743.573627,114.855485
39.525358,1665.40453,9686.145885,114.855485
39.52791,1741.974853,9647.860723,133.998066
39.530462,1703.689691,9590.432981,76.570323
39.533014,1646.261949,9686.145885,133.998066
39.535566,1684.54711,9590.432981,133.998066
39.538118,1780.260014,9647.860723,133.998066
39.54067,1703.689691,9647.860723,76.570323
39.543222,1646.261949,9609.575562,76.570323
39.545773,1741.974853,9647.860723,133.998066
39.548325,1703.689691,9667.003304,133.998066
39.550877,1722.832272,9628.718142,19.142581
39.553429,1741.974853,9609.575562,133.998066
39.555981,1684.54711,9628.718142,133.998066
39.558533,1684.54711,9609.575562,76.570323
39.561085,1722.832272,9628.718142,76.570323
39.563637,1684.54711,9647.860723,133.998066
39.566189,1646.261949,9647.860723,95.712904
39.568741,1818.545176,9609.575562,57.427742
39.571292,1761.117434,9628.718142,76.570323
39.573844,1684.54711,9590.432981,114.855485
39.576396,1684.54711,9590.432981,95.712904
39.578948,1780.260014,9686.145885,38.285162
39.5815,1761.117434,9647.860723,191.425808
39.584052,1761.117434,9628.718142,0
39.586604,1741.974853,9647.860723,133.998066
39.589156,1799.402595,9609.575562,153.140646
39.591708,1703.689691,9571.2904,57.427742
39.59426,1684.54711,9590.432981,191.425808
39.596811,1741.974853,9628.718142,153.140646
39.599363,1818.545176,9552.147819,19.142581
39.601915,1741.974853,9609.575562,153.140646
39.604467,1818.545176,9724.431046,210.568389
39.607019,1780.260014,9667.003304,133.998066
39.609571,1646.261949,9647.860723,95.712904
39.612123,1780.260014,9647.860723,153.140646
39.614675,1722.832272,9590.432981,57.427742
39.617227,1703.689691,9628.718142,76.570323
39.619779,1761.117434,9667.003304,114.855485
39.62233,1741.974853,9647.860723,57.427742
39.624882,1703.689691,9705.288466,57.427742
39.627434,1780.260014,9609.575562,191.425808
39.629986,1684.54711,9686.145885,0
39.632538,1703.689691,9590.432981,38.285162
39.63509,1799.402595,9647.860723,191.425808
39.637642,1722.832272,9590.432981,38.285162
39.640194,1684.54711,9647.860723,133.998066
39.642745,1780.260014,9647.860723,133.998066
39.645297,1761.117434,9552.147819,133.998066
39.647849,1780.260014,9628.718142,76.570323
39.650401,1646.261949,9686.145885,133.998066
39.652953,1818.545176,9628.718142,76.570323
39.655505,1703.689691,9628.718142,76.570323
39.658057,1684.54711,9647.860723,172.283227
39.660609,1741.974853,9647.860723,133.998066
39.66316,1646.261949,9609.575562,38.285162
39.665712,1684.54711,9647.860723,133.998066
39.668264,1818.545176,9686.145885,19.142581
39.670816,1722.832272,9647.860723,76.570323
39.673368,1665.40453,9705.288466,114.855485
39.67592,1799.402595,9609.575562,133.998066
39.678472,1684.54711,9686.145885,0
39.681024,1703.689691,9724.431046,114.855485
39.683575,1741.974853,9609.575562,153.140646
39.686127,1780.260014,9590.432981,76.570323
39.688679,1722.832272,9628.718142,0
39.691231,1646.261949,9686.145885,172.283227
39.693783,1703.689691,9609.575562,95.712904
39.696335,1799.402595,9609.575562,133.998066
39.698887,1780.260014,9647.860723,133.998066
39.701439,1627.119368,9647.860723,-19.142581
39.70399,1703.689691,9513.862658,76.570323
39.706542,1703.689691,9628.718142,76.570323
39.709094,1780.260014,9609.575562,172.283227
39.711646,1722.832272,9590.432981,76.570323
39.714198,1741.974853,9609.575562,133.998066
39.71675,1722.832272,9647.860723,76.570323
39.719302,1741.974853,9628.718142,76.570323
39.721854,1780.260014,9724.431046,153.140646
39.724405,1703.689691,9647.860723,95.712904
39.726957,1780.260014,9609.575562,133.998066
39.729508,1722.832272,9724.431046,172.283227
39.732059,1761.117434,9590.432981,76.570323
39.73461,1761.117434,9647.860723,76.570323
39.737161,1799.402595,9686.145885,133.998066
39.739712,1703.689691,9647.860723,153.140646
39.742264,1761.117434,9590.432981,76.570323
39.744815,1741.974853,9609.575562,133.998066
39.747366,1780.260014,9647.860723,191.425808
39.749917,1703.689691,9590.432981,57.427742
39.752468,1741.974853,9628.718142,57.427742
39.755019,1741.974853,9724.431046,114.855485
39.757571,1761.117434,9628.718142,38.285162
39.760122,1665.40453,9628.718142,172.283227
39.762673,1722.832272,9590.432981,76.570323
39.765224,1761.117434,9647.860723,57.427742
39.767775,1741.974853,9647.860723,133.998066
39.770326,1684.54711,9647.860723,153.140646
39.772878,1761.117434,9571.2904,133.998066
39.775429,1722.832272,9590.432981,76.570323
39.77798,1780.260014,9647.860723,133.998066
39.780531,1722.832272,9609.575562,76.570323
39.783082,1741.974853,9647.860723,133.998066
39.785633,1799.402595,9552.147819,191.425808
39.788184,1722.832272,9628.718142,76.570323
39.790736,1741.974853,9667.003304,153.140646
39.793287,1780.260014,9647.860723,153.140646
39.795838,1741.974853,9590.432981,76.570323
39.798389,1684.54711,9686.145885,57.427742
39.80094,1741.974853,9647.860723,133.998066
39.803491,1799.402595,9609.575562,133.998066
39.806043,1741.974853,9590.432981,38.285162
39.808594,1684.54711,9628.718142,153.140646
39.811145,1722.832272,9609.575562,153.140646
39.813696,1741.974853,9609.575562,114.855485
39.816247,1722.832272,9628.718142,248.85355
39.818798,1684.54711,9609.575562,133.998066
39.82135,1703.689691,9609.575562,95.712904
39.823901,1761.117434,9590.432981,76.570323
39.826452,1780.260014,9705.288466,95.712904
39.829003,1665.40453,9647.860723,76.570323
39.831554,1741.974853,9647.860723,76.570323
39.834105,1703.689691,9647.860723,95.712904
39.836657,1703.689691,9590.432981,57.427742
39.839208,1761.117434,9667.003304,210.568389
39.841759,1684.54711,9609.575562,76.570323
39.84431,1780.260014,9647.860723,153.140646
39.846861,1684.54711,9647.860723,76.570323
39.849412,1665.40453,9571.2904,38.285162
39.851964,1722.832272,9667.003304,114.855485
39.854515,1703.689691,9628.718142,0
39.857066,1799.402595,9647.860723,191.425808
39.859617,1703.689691,9590.432981,19.142581
39.862168,1780.260014,9647.860723,133.998066
39.864719,1780.260014,9609.575562,172.283227
39.867271,1722.832272,9762.716208,133.998066
39.869822,1684.54711,9590.432981,114.855485
39.872373,1722.832272,9609.575562,133.998066
39.874924,1741.974853,9686.145885,95.712904
39.877475,1741.974853,9647.860723,133.998066
39.880026,1780.260014,9628.718142,191.425808
39.882578,1703.689691,9686.145885,133.998066
39.885129,1703.689691,9609.575562,38.285162
39.88768,1722.832272,9552.147819,172.283227
39.890231,1703.689691,9609.575562,95.712904
39.892782,1780.260014,9609.575562,76.570323
39.895333,1684.54711,9647.860723,133.998066
39.897885,1761.117434,9552.147819,153.140646
39.900436,1646.261949,9647.860723,19.142581
39.902987,1741.974853,9667.003304,153.140646
39.905538,1761.117434,9667.003304,153.140646
39.908089,1703.689691,9590.432981,57.427742
39.91064,1703.689691,9590.432981,76.570323
39.913192,1741.974853,9647.860723,191.425808
39.915743,1761.117434,9590.432981,57.427742
39.918294,1646.261949,9609.575562,95.712904
39.920845,1722.832272,9590.432981,133.998066
39.923396,1780.260014,9609.575562,76.570323
39.925947,1703.689691,9647.860723,114.855485
39.928499,1741.974853,9667.003304,95.712904
39.931049,1780.260014,9628.718142,76.570323
39.9336,1722.832272,9628.718142,57.427742
39.93615,1799.402595,9628.718142,191.425808
39.938701,1703.689691,9590.432981,-57.427742
39.941252,1799.402595,9647.860723,133.998066
39.943802,1684.54711,9647.860723,133.998066
39.946353,1761.117434,9686.145885,95.712904
39.948904,1741.974853,9590.432981,57.427742
39.951454,1703.689691,9762.716208,191.425808
39.954005,1722.832272,9628.718142,57.427742
39.956555,1703.689691,9590.432981,57.427742
39.959106,1665.40453,9686.145885,210.568389
39.961657,1818.545176,9609.575562,95.712904
39.964207,1703.689691,9533.005238,95.712904
39.966758,1780.260014,9667.003304,114.855485
39.969308,1761.117434,9590.432981,0
39.971859,1703.689691,9590.432981,38.285162
39.97441,1780.260014,9590.432981,114.855485
39.97696,1684.54711,9686.145885,114.855485
39.979511,1703.689691,9590.432981,38.285162
39.982062,1684.54711,9609.575562,133.998066
39.984612,1780.260014,9647.860723,172.283227
39.987163,1665.40453,9590.432981,38.285162
39.989713,1761.117434,9628.718142,191.425808
39.992264,1722.832272,9628.718142,114.855485
39.994815,1646.261949,9609.575562,19.142581
39.997365,1761.117434,9705.288466,191.425808
39.999916,1741.974853,9628.718142,38.285162
40.002467,1703.689691,9667.003304,95.712904
40.005017,1703.689691,9667.003304,114.855485
40.007568,1780.260014,9628.718142,133.998066
40.010118,1741.974853,9724.431046,38.285162
40.012669,1741.974853,9647.860723,133.998066
40.01522,1741.974853,9609.575562,133.998066
40.01777,1703.689691,9628.718142,19.142581
40.020321,1684.54711,9628.718142,95.712904
40.022872,1722.832272,9571.2904,133.998066
40.025422,1684.54711,9590.432981,38.285162
40.027973,1741.974853,9571.2904,57.427742
40.030523,1741.974853,9647.860723,133.998066
40.033073,1684.54711,9647.860723,76.570323
40.035623,1799.402595,9609.575562,133.998066
40.038172,1684.54711,9628.718142,133.998066
40.040722,1646.261949,9667.003304,114.855485
40.043272,1818.545176,9590.432981,0
40.045821,1684.54711,9609.575562,133.998066
40.048371,1703.689691,9590.432981,19.142581
40.050921,1741.974853,9647.860723,133.998066
40.05347,1741.974853,9686.145885,95.712904
40.05602,1684.54711,9590.432981,172.283227
40.05857,1722.832272,9571.2904,38.285162
40.061119,1741.974853,9609.575562,76.570323
40.063669,1741.974853,9647.860723,76.570323
40.066219,1741.974853,9686.145885,0
40.068768,1722.832272,9667.003304,95.712904
40.071318,1761.117434,9667.003304,191.425808
40.073868,1722.832272,9590.432981,19.142581
40.076417,1780.260014,9590.432981,133.998066
40.078967,1761.117434,9667.003304,172.283227
40.081517,1703.689691,9628.718142,-38.285162
40.084066,1741.974853,9647.860723,153.140646
40.086616,1741.974853,9667.003304,153.140646
40.089166,1761.117434,9571.2904,76.570323
40.091715,1780.260014,9667.003304,172.283227
40.094265,1799.402595,9609.575562,133.998066
40.096815,1761.117434,9647.860723,133.998066
40.099364,1665.40453,9647.860723,95.712904
40.101914,1780.260014,9647.860723,191.425808
40.104463,1703.689691,9590.432981,0
40.107013,1799.402595,9647.860723,133.998066
40.109563,1741.974853,9667.003304,133.998066
40.112112,1761.117434,9628.718142,0
40.114662,1722.832272,9571.2904,133.998066
40.117212,1780.260014,9667.003304,133.998066
40.119761,1741.974853,9628.718142,133.998066
40.122311,1741.974853,9628.718142,0
40.124861,1684.54711,9609.575562,76.570323
40.12741,1799.402595,9647.860723,191.425808
40.12996,1627.119368,9609.575562,19.142581
40.13251,1741.974853,9609.575562,191.425808
41.769893,1741.974853,9590.432981,57.427742
41.772432,1780.260014,9647.860723,172.283227
41.774972,1741.974853,9647.860723,133.998066
41.777511,1818.545176,9628.718142,76.570323
41.78005,1703.689691,9628.718142,76.570323
41.782589,1741.974853,9609.575562,248.85355
41.785128,1646.261949,9628.718142,-19.142581
41.787667,1722.832272,9647.860723,172.283227
41.790207,1684.54711,9647.860723,153.140646
41.792746,1741.974853,9494.720077,95.712904
41.795285,1627.119368,9628.718142,172.283227
41.797824,1722.832272,9686.145885,133.998066
41.800363,1741.974853,9590.432981,-38.285162
41.802902,1741.974853,9647.860723,191.425808
41.805441,1780.260014,9647.860723,172.283227
41.807981,1780.260014,9686.145885,19.142581
41.81052,1684.54711,9590.432981,76.570323
41.813059,1780.260014,9667.003304,191.425808
41.815598,1722.832272,9628.718142,57.427742
41.818137,1761.117434,9590.432981,76.570323
41.820676,1722.832272,9628.718142,248.85355
41.823216,1722.832272,9686.145885,38.285162
41.825755,1722.832272,9628.718142,191.425808
41.828294,1761.117434,9628.718142,153.140646
41.830833,1761.117434,9628.718142,76.570323
41.833372,1703.689691,9590.432981,57.427742
41.835911,1780.260014,9647.860723,133.998066
41.838451,1722.832272,9628.718142,38.285162
41.84099,1703.689691,9628.718142,76.570323
41.843529,1722.832272,9647.860723,191.425808
41.846068,1722.832272,9628.718142,76.570323
41.848607,1646.261949,9609.575562,95.712904
41.851146,1780.260014,9686.145885,210.568389
41.853686,1761.117434,9628.718142,133.998066
41.856227,1684.54711,9552.147819,133.998066
41.858769,1741.974853,9667.003304,133.998066
41.86131,1703.689691,9647.860723,95.712904
41.863852,1646.261949,9609.575562,95.712904
41.866393,1741.974853,9667.003304,172.283227
41.868935,1741.974853,9590.432981,76.570323
41.871476,1703.689691,9590.432981,76.570323
41.874018,1684.54711,9628.718142,172.283227
41.876559,1741.974853,9647.860723,133.998066
41.879101,1607.976787,9590.432981,95.712904
41.881642,1722.832272,9647.860723,133.998066
41.884184,1780.260014,9647.860723,133.998066
41.886725,1684.54711,9609.575562,76.570323
41.889267,1761.117434,9628.718142,57.427742
41.891808,1799.402595,9647.860723,133.998066
41.89435,1722.832272,9628.718142,57.427742
41.896891,1741.974853,9590.432981,133.998066
41.899433,1722.832272,9667.003304,153.140646
41.901974,1684.54711,9647.860723,133.998066
41.904515,1703.689691,9590.432981,57.427742
41.907057,1684.54711,9667.003304,172.283227
41.909598,1665.40453,9743.573627,133.998066
41.91214,1684.54711,9533.005238,133.998066
41.914681,1761.117434,9667.003304,172.283227
41.917223,1703.689691,9628.718142,19.142581
41.919764,1799.402595,9647.860723,76.570323
41.922306,1799.402595,9590.432981,114.855485
41.924847,1684.54711,9628.718142,172.283227
41.927389,1722.832272,9628.718142,57.427742
41.92993,1780.260014,9609.575562,191.425808
41.932472,1703.689691,9647.860723,38.285162
41.935013,1780.260014,9647.860723,76.570323
41.937555,1722.832272,9647.860723,153.140646
41.940096,1665.40453,9743.573627,133.998066
41.942638,1799.402595,9533.005238,57.427742
41.945179,1684.54711,9667.003304,153.140646
41.947721,1780.260014,9647.860723,172.283227
41.950262,1722.832272,9609.575562,95.712904
41.952804,1741.974853,9647.860723,153.140646
41.955345,1761.117434,9647.860723,76.570323
41.957888,1780.260014,9609.575562,133.998066
41.960431,1741.974853,9647.860723,133.998066
41.962974,1799.402595,9647.860723,210.568389
41.965517,1703.689691,9513.862658,19.142581
41.96806,1703.689691,9667.003304,114.855485
41.970603,1741.974853,9667.003304,210.568389
41.973146,1818.545176,9571.2904,76.570323
41.975689,1684.54711,9609.575562,76.570323
41.978231,1761.117434,9609.575562,133.998066
41.980774,1741.974853,9609.575562,133.998066
41.983317,1722.832272,9667.003304,153.140646
41.98586,1722.832272,9667.003304,114.855485
41.988403,1818.545176,9647.860723,76.570323
41.990946,1607.976787,9628.718142,38.285162
41.993489,1761.117434,9667.003304,191.425808
41.996032,1722.832272,9724.431046,114.855485
41.998575,1646.261949,9647.860723,114.855485
42.001118,1684.54711,9609.575562,133.998066
42.00366,1799.402595,9647.860723,153.140646
42.006203,1646.261949,9647.860723,38.285162
42.008746,1780.260014,9647.860723,172.283227
42.011289,1761.117434,9647.860723,172.283227
42.013832,1627.119368,9667.003304,38.285162
42.016375,1703.689691,9609.575562,76.570323
42.018918,1818.545176,9628.718142,76.570323
42.021461,1684.54711,9647.860723,57.427742
42.024004,1703.689691,9686.145885,191.425808
42.026547,1761.117434,9590.432981,76.570323
42.029089,1665.40453,9590.432981,38.285162
42.031632,1780.260014,9667.003304,172.283227
42.034175,1722.832272,9667.003304,114.855485
42.036718,1703.689691,9647.860723,38.285162
42.039261,1684.54711,9647.860723,133.998066
42.041804,1780.260014,9647.860723,172.283227
42.044347,1646.261949,9647.860723,95.712904
42.04689,1703.689691,9609.575562,19.142581
42.049433,1722.832272,9686.145885,153.140646
42.051976,1741.974853,9552.147819,0
42.054518,1722.832272,9628.718142,76.570323
42.057061,1684.54711,9647.860723,172.283227
42.059574,1627.119368,9667.003304,95.712904
42.062088,1722.832272,9628.718142,38.285162
42.064601,1703.689691,9667.003304,210.568389
42.067114,1703.689691,9571.2904,76.570323
42.069627,1722.832272,9628.718142,57.427742
42.07214,1684.54711,9628.718142,114.855485
42.074653,1703.689691,9628.718142,57.427742
42.077166,1684.54711,9647.860723,133.998066
42.079679,1780.260014,9647.860723,133.998066
42.082192,1780.260014,9628.718142,76.570323
42.084705,1780.260014,9609.575562,76.570323
42.087218,1703.689691,9705.288466,76.570323
42.089732,1588.834206,9647.860723,114.855485
42.092245,1703.689691,9628.718142,38.285162
42.094758,1722.832272,9609.575562,76.570323
42.097271,1780.260014,9590.432981,133.998066
42.099784,1741.974853,9628.718142,76.570323
42.102297,1703.689691,9686.145885,172.283227
42.10481,1780.260014,9609.575562,76.570323
42.107323,1761.117434,9628.718142,76.570323
42.109836,1684.54711,9647.860723,133.998066
42.112349,1665.40453,9590.432981,191.425808
42.114863,1818.545176,9609.575562,38.285162
42.117376,1780.260014,9609.575562,133.998066
42.119889,1722.832272,9724.431046,191.425808
42.122402,1646.261949,9609.575562,95.712904
42.124915,1684.54711,9647.860723,133.998066
42.127428,1684.54711,9647.860723,191.425808
42.129941,1722.832272,9513.862658,38.285162
42.132454,1703.689691,9628.718142,76.570323
42.134967,1722.832272,9590.432981,248.85355
42.13748,1818.545176,9513.862658,57.427742
42.139994,1646.261949,9705.288466,153.140646
42.142507,1741.974853,9647.860723,133.998066
42.14502,1761.117434,9609.575562,133.998066
42.147533,1684.54711,9552.147819,133.998066
42.150046,1684.54711,9647.860723,172.283227
42.152559,1684.54711,9628.718142,153.140646
42.155072,1684.54711,9667.003304,38.285162
42.157585,1780.260014,9571.2904,172.283227
42.160106,1722.832272,9628.718142,76.570323
42.162626,1646.261949,9609.575562,95.712904
42.165146,1741.974853,9647.860723,191.425808
42.167667,1684.54711,9571.2904,57.427742
42.170187,1665.40453,9571.2904,114.855485
42.172708,1684.54711,9724.431046,133.998066
42.175228,1741.974853,9552.147819,133.998066
42.177749,1684.54711,9628.718142,114.855485
42.180269,1722.832272,9667.003304,133.998066
42.182789,1722.832272,9628.718142,76.570323
42.18531,1703.689691,9628.718142,-76.570323
42.18783,1761.117434,9647.860723,153.140646
42.190351,1741.974853,9647.860723,76.570323
42.192871,1722.832272,9628.718142,76.570323
42.195391,1722.832272,9628.718142,76.570323
42.197912,1780.260014,9609.575562,133.998066
42.200432,1607.976787,9647.860723,19.142581
42.202953,1722.832272,9628.718142,76.570323
42.205473,1741.974853,9609.575562,172.283227
42.207994,1722.832272,9609.575562,38.285162
42.210514,1722.832272,9628.718142,-38.285162
42.213034,1761.117434,9724.431046,153.140646
42.215555,1703.689691,9609.575562,95.712904
42.218075,1703.689691,9628.718142,76.570323
42.220596,1684.54711,9647.860723,153.140646
42.223116,1703.689691,9590.432981,57.427742
42.225636,1722.832272,9667.003304,172.283227
42.228157,1703.689691,9628.718142,76.570323
42.230677,1665.40453,9590.432981,114.855485
42.233198,1741.974853,9609.575562,133.998066
42.235718,1684.54711,9667.003304,133.998066
42.238239,1780.260014,9513.862658,95.712904
42.240759,1761.117434,9590.432981,76.570323
42.243279,1684.54711,9609.575562,133.998066
42.2458,1646.261949,9628.718142,38.285162
42.24832,1837.687757,9628.718142,76.570323
42.250841,1741.974853,9552.147819,191.425808
42.253361,1741.974853,9667.003304,153.140646
42.255881,1818.545176,9743.573627,172.283227
42.258402,1665.40453,9590.432981,153.140646
42.260928,1780.260014,9552.147819,191.425808
42.263454,1761.117434,9590.432981,76.570323
42.26598,1703.689691,9628.718142,95.712904
42.268507,1799.402595,9647.860723,248.85355
42.271033,1837.687757,9609.575562,95.712904
42.273559,1780.260014,9647.860723,133.998066
42.276085,1684.54711,9609.575562,191.425808
42.278611,1780.260014,9647.860723,57.427742
42.281138,1722.832272,9609.575562,76.570323
42.283664,1722.832272,9647.860723,172.283227
42.28619,1761.117434,9609.575562,19.142581
42.288716,1684.54711,9628.718142,114.855485
42.291242,1741.974853,9609.575562,133.998066
42.293769,1741.974853,9552.147819,133.998066
42.296295,1741.974853,9647.860723,76.570323
42.298821,1780.260014,9590.432981,191.425808
42.301347,1761.117434,9590.432981,76.570323
42.303873,1684.54711,9686.145885,95.712904
42.3064,1741.974853,9686.145885,210.568389
42.308926,1741.974853,9609.575562,153.140646
42.311452,1646.261949,9590.432981,38.285162
42.313978,1780.260014,9590.432981,153.140646
42.316504,1761.117434,9533.005238,172.283227
42.319031,1684.54711,9705.288466,38.285162
42.321557,1665.40453,9628.718142,153.140646
42.324083,1684.54711,9609.575562,133.998066
42.326609,1684.54711,9609.575562,172.283227
42.329135,1646.261949,9647.860723,38.285162
42.331662,1741.974853,9667.003304,76.570323
42.334188,1703.689691,9571.2904,76.570323
42.336714,1684.54711,9647.860723,114.855485
42.33924,1856.830338,9686.145885,172.283227
42.341766,1703.689691,9628.718142,0
42.344293,1684.54711,9647.860723,133.998066
42.346819,1722.832272,9552.147819,153.140646
42.349345,1722.832272,9647.860723,57.427742
42.351871,1665.40453,9628.718142,114.855485
42.354397,1703.689691,9609.575562,57.427742
42.356924,1741.974853,9590.432981,-38.285162
42.35945,1684.54711,9647.860723,19.142581
42.361981,1722.832272,9590.432981,133.998066
42.364513,1703.689691,9609.575562,95.712904
42.367044,1703.689691,9609.575562,95.712904
42.369575,1741.974853,9647.860723,133.998066
42.372107,1684.54711,9667.003304,76.570323
42.374638,1741.974853,9609.575562,76.570323
42.37717,1684.54711,9647.860723,191.425808
42.379701,1703.689691,9590.432981,76.570323
42.382232,1684.54711,9590.432981,38.285162
42.384764,1780.260014,9686.145885,114.855485
42.387295,1741.974853,9590.432981,114.855485
42.389827,1684.54711,9552.147819,133.998066
42.392358,1703.689691,9628.718142,76.570323
42.394889,1818.545176,9647.860723,76.570323
42.397421,1761.117434,9590.432981,57.427742
42.399952,1665.40453,9628.718142,114.855485
42.402484,1741.974853,9647.860723,133.998066
42.405015,1818.545176,9628.718142,38.285162
42.407546,1569.691626,9647.860723,95.712904
42.410078,1780.260014,9609.575562,133.998066
42.412609,1818.545176,9609.575562,57.427742
42.415141,1646.261949,9647.860723,76.570323
42.417672,1780.260014,9647.860723,172.283227
42.420203,1741.974853,9705.288466,95.712904
42.422735,1703.689691,9590.432981,57.427742
42.425266,1722.832272,9743.573627,229.71097
42.427798,1761.117434,9513.862658,57.427742
42.430329,1703.689691,9628.718142,76.570323
42.43286,1799.402595,9647.860723,133.998066
42.435392,1761.117434,9686.145885,95.712904
42.437923,1703.689691,9647.860723,95.712904
42.440455,1780.260014,9628.718142,229.71097
42.442986,1780.260014,9628.718142,76.570323
42.445517,1646.261949,9686.145885,172.283227
42.448049,1741.974853,9647.860723,172.283227
42.45058,1741.974853,9647.860723,57.427742
42.453112,1703.689691,9705.288466,76.570323
42.455643,1722.832272,9724.431046,172.283227
42.458174,1741.974853,9609.575562,133.998066
42.460706,1741.974853,9552.147819,76.570323
42.463241,1780.260014,9647.860723,191.425808
42.465776,1684.54711,9628.718142,114.855485
42.468312,1703.689691,9609.575562,95.712904
42.470847,1722.832272,9647.860723,133.998066
42.473382,1818.545176,9590.432981,76.570323
42.475918,1665.40453,9609.575562,133.998066
42.478453,1684.54711,9590.432981,76.570323
42.480988,1722.832272,9628.718142,76.570323
42.483523,1761.117434,9667.003304,95.712904
42.486059,1703.689691,9590.432981,57.427742
42.488594,1741.974853,9647.860723,172.283227
42.491129,1780.260014,9609.575562,76.570323
42.493665,1703.689691,9590.432981,76.570323
42.4962,1741.974853,9647.860723,76.570323
42.498735,1780.260014,9628.718142,76.570323
42.50127,1741.974853,9647.860723,133.998066
42.503806,1722.832272,9667.003304,153.140646
42.506341,1646.261949,9609.575562,95.712904
42.508876,1646.261949,9609.575562,38.285162
42.511412,1684.54711,9647.860723,133.998066
42.513947,1741.974853,9686.145885,38.285162
42.516482,1703.689691,9647.860723,114.855485
42.519017,1761.117434,9647.860723,114.855485
42.521553,1722.832272,9590.432981,76.570323
42.524088,1741.974853,9628.718142,95.712904
42.526623,1684.54711,9590.432981,19.142581
42.529159,1761.117434,9628.718142,133.998066
42.531694,1722.832272,9590.432981,76.570323
42.534229,1684.54711,9667.003304,153.140646
42.536764,1646.261949,9647.860723,76.570323
42.5393,1741.974853,9609.575562,76.570323
42.541835,1703.689691,9686.145885,133.998066
42.54437,1646.261949,9647.860723,57.427742
42.546906,1722.832272,9590.432981,76.570323
42.549441,1799.402595,9628.718142,114.855485
42.551976,1722.832272,9686.145885,133.998066
42.554512,1703.689691,9552.147819,76.570323
42.557047,1646.261949,9647.860723,95.712904
42.559582,1780.260014,9609.575562,133.998066
42.562117,1799.402595,9686.145885,95.712904
42.564656,1703.689691,9686.145885,76.570323
42.567195,1741.974853,9647.860723,153.140646
42.569734,1646.261949,9647.860723,19.142581
42.572273,1703.689691,9743.573627,114.855485
42.574812,1761.117434,9743.573627,191.425808
42.577351,1722.832272,9590.432981,0
42.57989,1761.117434,9667.003304,210.568389
42.582429,1780.260014,9609.575562,172.283227
42.584968,1799.402595,9590.432981,95.712904
42.587507,1741.974853,9647.860723,133.998066
42.590046,1780.260014,9647.860723,133.998066
42.592585,1761.117434,9590.432981,76.570323
42.595124,1646.261949,9647.860723,0
42.597662,1780.260014,9647.860723,191.425808
42.600201,1722.832272,9628.718142,38.285162
42.60274,1684.54711,9609.575562,133.998066
42.605279,1799.402595,9609.575562,248.85355
42.607818,1703.689691,9609.575562,38.285162
42.610357,1741.974853,9609.575562,76.570323
42.612896,1780.260014,9647.860723,191.425808
42.615435,1761.117434,9590.432981,19.142581
42.617974,1684.54711,9609.575562,76.570323
42.620513,1741.974853,9647.860723,153.140646
42.623052,1799.402595,9609.575562,76.570323
42.625591,1741.974853,9647.860723,76.570323
42.62813,1741.974853,9647.860723,172.283227
42.630669,1741.974853,9686.145885,95.712904
42.633208,1722.832272,9647.860723,76.570323
42.635747,1665.40453,9686.145885,153.140646
42.638285,1761.117434,9590.432981,133.998066
42.640824,1703.689691,9628.718142,57.427742
42.643363,1741.974853,9609.575562,191.425808
42.645902,1722.832272,9628.718142,76.570323
42.648441,1703.689691,9590.432981,76.570323
42.65098,1684.54711,9609.575562,133.998066
42.653519,1741.974853,9686.145885,76.570323
42.656058,1741.974853,9628.718142,76.570323
42.658597,1703.689691,9667.003304,95.712904
42.661136,1722.832272,9609.575562,133.998066
42.663675,1722.832272,9628.718142,76.570323
44.310457,1818.545176,9667.003304,153.140646
44.312996,1722.832272,9590.432981,19.142581
44.315536,1722.832272,9609.575562,133.998066
44.318075,1780.260014,9667.003304,229.71097
44.320615,1741.974853,9571.2904,19.142581
44.323154,1665.40453,9705.288466,153.140646
44.325693,1722.832272,9552.147819,114.855485
44.328233,1761.117434,9628.718142,153.140646
44.330772,1741.974853,9609.575562,76.570323
44.333312,1684.54711,9647.860723,133.998066
44.335851,1780.260014,9609.575562,133.998066
44.338391,1665.40453,9686.145885,114.855485
44.34093,1665.40453,9609.575562,114.855485
44.343469,1761.117434,9647.860723,191.425808
44.346009,1722.832272,9590.432981,19.142581
44.348548,1646.261949,9609.575562,95.712904
44.351088,1722.832272,9647.860723,172.283227
44.353627,1665.40453,9628.718142,114.855485
44.356167,1722.832272,9590.432981,0
44.358706,1703.689691,9667.003304,210.568389
44.361246,1665.40453,9552.147819,19.142581
44.363785,1780.260014,9647.860723,133.998066
44.366324,1684.54711,9628.718142,133.998066
44.368867,1703.689691,9628.718142,57.427742
44.371409,1646.261949,9647.860723,38.285162
44.373952,1741.974853,9667.003304,133.998066
44.376494,1665.40453,9609.575562,57.427742
44.379037,1722.832272,9590.432981,0
44.381579,1818.545176,9628.718142,76.570323
44.384122,1741.974853,9647.860723,76.570323
44.386664,1741.974853,9647.860723,133.998066
44.389206,1646.261949,9667.003304,95.712904
44.391749,1741.974853,9552.147819,133.998066
44.394291,1646.261949,9686.145885,95.712904
44.396834,1741.974853,9609.575562,76.570323
44.399376,1703.689691,9667.003304,76.570323
44.401919,1780.260014,9667.003304,114.855485
44.404461,1646.261949,9667.003304,114.855485
44.407003,1703.689691,9628.718142,76.570323
44.409546,1837.687757,9609.575562,95.712904
44.412088,1722.832272,9628.718142,19.142581
44.414631,1780.260014,9590.432981,191.425808
44.417173,1722.832272,9686.145885,38.285162
44.419716,1684.54711,9628.718142,114.855485
44.422258,1684.54711,9686.145885,153.140646
44.4248,1761.117434,9609.575562,57.427742
44.427343,1646.261949,9590.432981,76.570323
44.429885,1684.54711,9667.003304,191.425808
44.432428,1722.832272,9609.575562,-38.285162
44.43497,1684.54711,9686.145885,114.855485
44.437513,1703.689691,9647.860723,76.570323
44.440055,1818.545176,9628.718142,76.570323
44.442597,1741.974853,9686.145885,0
44.44514,1703.689691,9743.573627,153.140646
44.447682,1741.974853,9647.860723,19.142581
44.450225,1665.40453,9628.718142,114.855485
44.452767,1684.54711,9667.003304,191.425808
44.45531,1703.689691,9667.003304,172.283227
44.457852,1703.689691,9571.2904,76.570323
44.460394,1799.402595,9628.718142,172.283227
44.462937,1684.54711,9609.575562,76.570323
44.465479,1741.974853,9647.860723,133.998066
44.468022,1780.260014,9647.860723,153.140646
44.470566,1856.830338,9590.432981,172.283227
44.473111,1627.119368,9609.575562,-76.570323
44.475656,1741.974853,9686.145885,229.71097
44.478201,1722.832272,9590.432981,38.285162
44.480745,1741.974853,9628.718142,191.425808
44.48329,1741.974853,9647.860723,133.998066
44.485835,1780.260014,9647.860723,76.570323
44.488379,1741.974853,9552.147819,57.427742
44.490924,1741.974853,9705.288466,229.71097
44.493469,1722.832272,9628.718142,76.570323
44.496013,1703.689691,9590.432981,57.427742
44.498558,1741.974853,9628.718142,153.140646
44.501103,1761.117434,9590.432981,76.570323
44.503647,1646.261949,9609.575562,38.285162
44.506192,1722.832272,9724.431046,114.855485
44.508737,1703.689691,9667.003304,172.283227
44.511281,1703.689691,9590.432981,76.570323
44.513826,1722.832272,9590.432981,57.427742
44.516371,1780.260014,9647.860723,172.283227
44.518916,1741.974853,9628.718142,38.285162
44.52146,1761.117434,9609.575562,76.570323
44.524005,1627.119368,9628.718142,95.712904
44.52655,1684.54711,9609.575562,76.570323
44.529094,1722.832272,9609.575562,76.570323
44.531639,1665.40453,9628.718142,95.712904
44.534184,1684.54711,9647.860723,153.140646
44.536728,1722.832272,9609.575562,38.285162
44.539273,1684.54711,9609.575562,153.140646
44.541818,1722.832272,9590.432981,76.570323
44.544362,1761.117434,9590.432981,76.570323
44.546907,1684.54711,9667.003304,210.568389
44.549452,1627.119368,9552.147819,-38.285162
44.551996,1722.832272,9571.2904,57.427742
44.554541,1741.974853,9647.860723,0
44.557086,1741.974853,9647.860723,153.140646
44.559631,1646.261949,9647.860723,19.142581
44.562175,1703.689691,9628.718142,76.570323
44.56472,1799.402595,9609.575562,172.283227
44.567265,1646.261949,9609.575562,0
44.569809,1799.402595,9724.431046,191.425808
44.572355,1741.974853,9609.575562,153.140646
44.574902,1799.402595,9628.718142,38.285162
44.577448,1684.54711,9647.860723,133.998066
44.579994,1722.832272,9686.145885,267.996131
44.58254,1761.117434,9628.718142,-38.285162
44.585086,1684.54711,9647.860723,191.425808
44.587632,1703.689691,9705.288466,76.570323
44.590178,1684.54711,9571.2904,133.998066
44.592724,1684.54711,9686.145885,114.855485
44.59527,1799.402595,9647.860723,191.425808
44.597817,1722.832272,9590.432981,-38.285162
44.600363,1780.260014,9609.575562,76.570323
44.602909,1761.117434,9647.860723,153.140646
44.605455,1799.402595,9724.431046,57.427742
44.608001,1799.402595,9667.003304,153.140646
44.610547,1684.54711,9609.575562,76.570323
44.613093,1741.974853,9686.145885,95.712904
44.615639,1703.689691,9628.718142,76.570323
44.618185,1741.974853,9609.575562,114.855485
44.620732,1761.117434,9647.860723,210.568389
44.623278,1703.689691,9590.432981,0
44.625824,1780.260014,9647.860723,191.425808
44.62837,1684.54711,9628.718142,114.855485
44.630916,1780.260014,9647.860723,76.570323
44.633462,1665.40453,9686.145885,172.283227
44.636008,1741.974853,9609.575562,133.998066
44.638554,1646.261949,9609.575562,57.427742
44.641101,1741.974853,9533.005238,76.570323
44.643647,1722.832272,9667.003304,172.283227
44.646193,1646.261949,9609.575562,-19.142581
44.648739,1741.974853,9647.860723,191.425808
44.651285,1722.832272,9590.432981,95.712904
44.653831,1761.117434,9590.432981,0
44.656377,1684.54711,9647.860723,133.998066
44.658923,1722.832272,9647.860723,133.998066
44.661469,1627.119368,9609.575562,38.285162
44.664016,1722.832272,9609.575562,133.998066
44.666562,1780.260014,9590.432981,153.140646
44.669108,1741.974853,9647.860723,133.998066
44.671654,1722.832272,9590.432981,38.285162
44.674172,1722.832272,9647.860723,133.998066
44.67669,1722.832272,9590.432981,95.712904
44.679208,1703.689691,9552.147819,19.142581
44.681726,1741.974853,9667.003304,172.283227
44.684245,1761.117434,9590.432981,133.998066
44.686763,1818.545176,9628.718142,38.285162
44.689281,1741.974853,9667.003304,153.140646
44.691799,1703.689691,9609.575562,95.712904
44.694317,1703.689691,9571.2904,57.427742
44.696835,1665.40453,9590.432981,210.568389
44.699353,1761.117434,9571.2904,38.285162
44.701871,1741.974853,9686.145885,133.998066
44.70439,1684.54711,9647.860723,133.998066
44.706908,1684.54711,9609.575562,153.140646
44.709426,1684.54711,9571.2904,19.142581
44.711944,1741.974853,9647.860723,76.570323
44.714462,1761.117434,9647.860723,133.998066
44.71698,1665.40453,9628.718142,-19.142581
44.719498,1722.832272,9667.003304,172.283227
44.722016,1780.260014,9724.431046,172.283227
44.724535,1780.260014,9628.718142,76.570323
44.727053,1703.689691,9628.718142,57.427742
44.729571,1722.832272,9724.431046,210.568389
44.732089,1818.545176,9647.860723,95.712904
44.734607,1741.974853,9609.575562,172.283227
44.737125,1741.974853,9628.718142,153.140646
44.739643,1741.974853,9609.575562,133.998066
44.742161,1741.974853,9609.575562,133.998066
44.74468,1761.117434,9628.718142,267.996131
44.747198,1761.117434,9590.432981,19.142581
44.749716,1741.974853,9647.860723,172.283227
44.752234,1780.260014,9647.860723,191.425808
44.754752,1646.261949,9628.718142,-19.142581
44.75727,1799.402595,9628.718142,133.998066
44.759788,1722.832272,9705.288466,95.712904
44.762306,1799.402595,9590.432981,133.998066
44.764825,1722.832272,9724.431046,191.425808
44.767343,1684.54711,9647.860723,191.425808
44.769861,1741.974853,9705.288466,95.712904
44.772379,1722.832272,9590.432981,76.570323
44.774904,1741.974853,9647.860723,172.283227
44.777429,1684.54711,9705.288466,114.855485
44.779955,1780.260014,9609.575562,172.283227
44.78248,1722.832272,9552.147819,133.998066
44.785005,1703.689691,9667.003304,114.855485
44.78753,1703.689691,9590.432981,57.427742
44.790055,1684.54711,9647.860723,57.427742
44.792581,1799.402595,9590.432981,172.283227
44.795106,1569.691626,9667.003304,-38.285162
44.797631,1780.260014,9647.860723,153.140646
44.800156,1761.117434,9590.432981,76.570323
44.802681,1780.260014,9647.860723,133.998066
44.805207,1703.689691,9609.575562,95.712904
44.807732,1818.545176,9571.2904,76.570323
44.810257,1684.54711,9647.860723,114.855485
44.812782,1684.54711,9609.575562,153.140646
44.815308,1703.689691,9628.718142,76.570323
44.817833,1646.261949,9609.575562,38.285162
44.820358,1761.117434,9647.860723,153.140646
44.822883,1741.974853,9552.147819,114.855485
44.825408,1665.40453,9724.431046,76.570323
44.827934,1722.832272,9590.432981,95.712904
44.830459,1741.974853,9590.432981,172.283227
44.832984,1646.261949,9647.860723,95.712904
44.835509,1780.260014,9590.432981,0
44.838034,1722.832272,9686.145885,153.140646
44.84056,1703.689691,9590.432981,0
44.843085,1837.687757,9628.718142,133.998066
44.84561,1684.54711,9647.860723,133.998066
44.848135,1741.974853,9667.003304,153.140646
44.850661,1761.117434,9628.718142,76.570323
44.853186,1684.54711,9724.431046,76.570323
44.855711,1780.260014,9609.575562,191.425808
44.858236,1722.832272,9590.432981,19.142581
44.860761,1722.832272,9647.860723,57.427742
44.863287,1799.402595,9609.575562,133.998066
44.865812,1703.689691,9590.432981,0
44.868337,1646.261949,9724.431046,172.283227
44.870862,1818.545176,9552.147819,172.283227
44.873387,1761.117434,9590.432981,76.570323
44.875918,1741.974853,9609.575562,172.283227
44.878449,1799.402595,9609.575562,153.140646
44.88098,1837.687757,9552.147819,76.570323
44.883511,1684.54711,9590.432981,57.427742
44.886042,1741.974853,9590.432981,248.85355
44.888573,1741.974853,9571.2904,38.285162
44.891104,1684.54711,9647.860723,133.998066
44.893634,1722.832272,9609.575562,191.425808
44.896165,1722.832272,9628.718142,76.570323
44.898696,1741.974853,9571.2904,76.570323
44.901227,1741.974853,9609.575562,248.85355
44.903758,1761.117434,9590.432981,19.142581
44.906289,1799.402595,9705.288466,19.142581
44.90882,1741.974853,9628.718142,172.283227
44.91135,1780.260014,9609.575562,133.998066
44.913881,1684.54711,9647.860723,133.998066
44.916412,1684.54711,9609.575562,133.998066
44.918943,1761.117434,9628.718142,133.998066
44.921474,1722.832272,9590.432981,57.427742
44.924005,1780.260014,9647.860723,172.283227
44.926536,1818.545176,9628.718142,95.712904
44.929067,1684.54711,9647.860723,153.140646
44.931597,1780.260014,9647.860723,133.998066
44.934128,1741.974853,9590.432981,76.570323
44.936659,1741.974853,9571.2904,57.427742
44.93919,1665.40453,9647.860723,133.998066
44.941721,1722.832272,9667.003304,172.283227
44.944252,1703.689691,9647.860723,-38.285162
44.946783,1684.54711,9628.718142,172.283227
44.949313,1741.974853,9647.860723,-57.427742
44.951844,1741.974853,9647.860723,133.998066
44.954375,1646.261949,9647.860723,0
44.956906,1799.402595,9609.575562,172.283227
44.959437,1741.974853,9667.003304,38.285162
44.961968,1780.260014,9533.005238,114.855485
44.964499,1761.117434,9590.432981,76.570323
44.967029,1684.54711,9628.718142,114.855485
44.96956,1684.54711,9590.432981,114.855485
44.972091,1722.832272,9628.718142,133.998066
44.974622,1703.689691,9628.718142,76.570323
44.977157,1684.54711,9628.718142,114.855485
44.979692,1722.832272,9686.145885,133.998066
44.982228,1646.261949,9647.860723,95.712904
44.984763,1684.54711,9590.432981,133.998066
44.987298,1722.832272,9647.860723,76.570323
44.989833,1741.974853,9647.860723,172.283227
44.992368,1703.689691,9590.432981,57.427742
44.994904,1703.689691,9628.718142,0
44.997439,1761.117434,9609.575562,191.425808
44.999974,1703.689691,9590.432981,38.285162
45.002509,1722.832272,9647.860723,153.140646
45.005044,1780.260014,9628.718142,153.140646
45.007579,1761.117434,9571.2904,57.427742
45.010115,1722.832272,9647.860723,153.140646
45.01265,1780.260014,9609.575562,172.283227
45.015185,1722.832272,9628.718142,133.998066
45.01772,1703.689691,9705.288466,38.285162
45.020255,1761.117434,9667.003304,172.283227
45.022791,1722.832272,9590.432981,76.570323
45.025326,1665.40453,9647.860723,133.998066
45.027861,1780.260014,9647.860723,153.140646
45.030396,1780.260014,9590.432981,191.425808
45.032931,1665.40453,9724.431046,76.570323
45.035466,1780.260014,9609.575562,191.425808
45.038002,1761.117434,9590.432981,76.570323
45.040537,1684.54711,9647.860723,133.998066
45.043072,1780.260014,9647.860723,191.425808
45.045607,1761.117434,9628.718142,38.285162
45.048142,1703.689691,9571.2904,57.427742
45.050677,1818.545176,9609.575562,267.996131
45.053213,1646.261949,9609.575562,57.427742
45.055748,1780.260014,9609.575562,76.570323
45.058283,1646.261949,9686.145885,153.140646
45.060818,1741.974853,9647.860723,76.570323
45.063353,1703.689691,9609.575562,95.712904
45.065889,1684.54711,9647.860723,172.283227
45.068424,1837.687757,9667.003304,172.283227
45.070959,1646.261949,9647.860723,0
45.073494,1722.832272,9667.003304,114.855485
45.076029,1722.832272,9609.575562,76.570323
45.078569,1722.832272,9686.145885,57.427742
45.081108,1665.40453,9686.145885,210.568389
45.083647,1741.974853,9628.718142,76.570323
45.086187,1646.261949,9647.860723,19.142581
45.088726,1684.54711,9628.718142,114.855485
45.091265,1722.832272,9590.432981,76.570323
45.093805,1646.261949,9609.575562,38.285162
45.096344,1741.974853,9724.431046,114.855485
45.098884,1665.40453,9667.003304,95.712904
45.101423,1646.261949,9571.2904,133.998066
45.103962,1703.689691,9647.860723,95.712904
45.106502,1722.832272,9647.860723,114.855485
45.109041,1665.40453,9724.431046,76.570323
45.11158,1780.260014,9590.432981,57.427742
45.11412,1741.974853,9647.860723,172.283227
45.116659,1703.689691,9571.2904,38.285162
45.119198,1627.119368,9552.147819,57.427742
45.121738,1761.117434,9571.2904,191.425808
45.124277,1703.689691,9647.860723,95.712904
45.126817,1780.260014,9628.718142,19.142581
45.129356,1684.54711,9724.431046,133.998066
45.131895,1722.832272,9628.718142,19.142581
45.134435,1703.689691,9705.288466,114.855485
45.136974,1741.974853,9667.003304,172.283227
45.139513,1703.689691,9590.432981,76.570323
45.142053,1684.54711,9552.147819,0
45.144592,1722.832272,9647.860723,172.283227
45.147131,1646.261949,9647.860723,0
45.149671,1722.832272,9609.575562,38.285162
45.15221,1741.974853,9628.718142,191.425808
45.154749,1761.117434,9647.860723,248.85355
45.157289,1722.832272,9590.432981,19.142581
45.159828,1741.974853,9647.860723,133.998066
45.162368,1722.832272,9724.431046,114.855485
45.164907,1722.832272,9628.718142,0
45.167446,1722.832272,9667.003304,172.283227
45.169986,1722.832272,9647.860723,95.712904
45.172525,1703.689691,9571.2904,-38.285162
45.175064,1741.974853,9667.003304,172.283227
45.177604,1741.974853,9667.003304,153.140646
45.180146,1703.689691,9571.2904,57.427742
45.182689,1722.832272,9609.575562,133.998066
45.185231,1780.260014,9647.860723,172.283227
45.187773,1722.832272,9609.575562,95.712904
45.190316,1722.832272,9609.575562,57.427742
45.192858,1761.117434,9724.431046,153.140646
45.1954,1761.117434,9628.718142,19.142581
45.197943,1684.54711,9647.860723,133.998066
45.200485,1741.974853,9647.860723,153.140646
45.203028,1684.54711,9590.432981,133.998066
45.20557,1703.689691,9647.860723,114.855485
45.208112,1780.260014,9647.860723,172.283227
45.210655,1741.974853,9647.860723,133.998066
45.213197,1703.689691,9571.2904,57.427742
45.21574,1741.974853,9647.860723,191.425808
45.218282,1799.402595,9552.147819,153.140646
45.220824,1646.261949,9667.003304,38.285162
45.223367,1722.832272,9647.860723,172.283227
45.225909,1722.832272,9590.432981,133.998066
45.228452,1741.974853,9647.860723,0
45.230994,1665.40453,9628.718142,114.855485
45.233536,1741.974853,9647.860723,172.283227
45.236079,1761.117434,9590.432981,76.570323
45.238621,1780.260014,9667.003304,133.998066
45.241164,1722.832272,9590.432981,76.570323
45.243706,1722.832272,9628.718142,0
45.246248,1607.976787,9686.145885,248.85355
45.248791,1703.689691,9628.718142,38.285162
45.251333,1761.117434,9667.003304,153.140646
45.253876,1646.261949,9590.432981,95.712904
45.256418,1818.545176,9590.432981,133.998066
45.25896,1646.261949,9667.003304,95.712904
45.261503,1818.545176,9571.2904,76.570323
45.264045,1722.832272,9647.860723,76.570323
45.266587,1761.117434,9647.860723,133.998066
45.26913,1780.260014,9590.432981,76.570323
45.271672,1703.689691,9647.860723,133.998066
45.274215,1741.974853,9647.860723,153.140646
45.276757,1780.260014,9647.860723,76.570323
45.279299,1684.54711,9647.860723,133.998066
46.84863,1761.117434,9552.147819,133.998066
46.851178,1684.54711,9609.575562,76.570323
46.853726,1741.974853,9647.860723,133.998066
46.856275,1741.974853,9609.575562,133.998066
46.858823,1684.54711,9647.860723,76.570323
46.861371,1665.40453,9590.432981,114.855485
46.86392,1741.974853,9647.860723,153.140646
46.866468,1684.54711,9609.575562,114.855485
46.869017,1684.54711,9724.431046,153.140646
46.871565,1761.117434,9590.432981,76.570323
46.874113,1722.832272,9609.575562,133.998066
46.876662,1684.54711,9647.860723,133.998066
46.87921,1722.832272,9686.145885,133.998066
46.881758,1627.119368,9647.860723,95.712904
46.884307,1703.689691,9628.718142,57.427742
46.886855,1684.54711,9686.145885,229.71097
46.889403,1741.974853,9590.432981,0
46.891952,1780.260014,9533.005238,57.427742
46.8945,1722.832272,9724.431046,172.283227
46.897049,1703.689691,9628.718142,76.570323
46.899597,1684.54711,9609.575562,76.570323
46.902145,1722.832272,9647.860723,172.283227
46.904695,1722.832272,9628.718142,133.998066
46.907245,1722.832272,9590.432981,57.427742
46.909794,1741.974853,9647.860723,172.283227
46.912344,1665.40453,9724.431046,133.998066
46.914894,1703.689691,9647.860723,-19.142581
46.917444,1703.689691,9667.003304,38.285162
46.919993,1722.832272,9667.003304,114.855485
46.922543,1665.40453,9667.003304,-38.285162
46.925093,1741.974853,9724.431046,153.140646
46.927643,1799.402595,9609.575562,153.140646
46.930192,1741.974853,9609.575562,57.427742
46.932742,1684.54711,9628.718142,114.855485
46.935292,1722.832272,9609.575562,133.998066
46.937841,1818.545176,9628.718142,19.142581
46.940391,1741.974853,9647.860723,133.998066
46.942941,1780.260014,9571.2904,95.712904
46.945491,1799.402595,9647.860723,153.140646
46.94804,1607.976787,9609.575562,38.285162
46.95059,1761.117434,9686.145885,248.85355
46.95314,1741.974853,9571.2904,38.285162
46.95569,1741.974853,9647.860723,191.425808
46.958239,1684.54711,9647.860723,133.998066
46.960789,1741.974853,9609.575562,76.570323
46.963339,1646.261949,9628.718142,133.998066
46.965888,1665.40453,9647.860723,172.283227
46.968438,1780.260014,9647.860723,76.570323
46.970988,1741.974853,9609.575562,153.140646
46.973538,1780.260014,9647.860723,172.283227
46.976087,1761.117434,9609.575562,133.998066
46.978637,1665.40453,9590.432981,114.855485
46.981187,1799.402595,9647.860723,191.425808
46.983736,1722.832272,9628.718142,133.998066
46.986286,1684.54711,9647.860723,133.998066
46.988836,1761.117434,9609.575562,133.998066
46.991386,1799.402595,9552.147819,133.998066
46.993935,1722.832272,9686.145885,38.285162
46.996485,1684.54711,9590.432981,-19.142581
46.999035,1780.260014,9609.575562,191.425808
47.001585,1607.976787,9609.575562,19.142581
47.004134,1722.832272,9667.003304,172.283227
47.006685,1722.832272,9609.575562,95.712904
47.009237,1703.689691,9590.432981,76.570323
47.011788,1741.974853,9609.575562,172.283227
47.014339,1646.261949,9609.575562,95.712904
47.01689,1703.689691,9590.432981,76.570323
47.019441,1703.689691,9628.718142,57.427742
47.021992,1741.974853,9609.575562,210.568389
47.024543,1665.40453,9590.432981,-76.570323
47.027095,1703.689691,9628.718142,248.85355
47.029646,1780.260014,9590.432981,133.998066
47.032197,1722.832272,9552.147819,0
47.034748,1665.40453,9686.145885,172.283227
47.037299,1684.54711,9647.860723,133.998066
47.03985,1703.689691,9628.718142,57.427742
47.042401,1684.54711,9647.860723,76.570323
47.044952,1722.832272,9667.003304,95.712904
47.047504,1761.117434,9609.575562,153.140646
47.050055,1722.832272,9590.432981,38.285162
47.052606,1722.832272,9628.718142,172.283227
47.055157,1703.689691,9609.575562,114.855485
47.057708,1780.260014,9571.2904,76.570323
47.060259,1722.832272,9743.573627,114.855485
47.06281,1627.119368,9628.718142,114.855485
47.065362,1722.832272,9590.432981,76.570323
47.067913,1741.974853,9647.860723,133.998066
47.070464,1722.832272,9609.575562,153.140646
47.073015,1741.974853,9647.860723,133.998066
47.075566,1684.54711,9686.145885,114.855485
47.078117,1799.402595,9628.718142,114.855485
47.080668,1780.260014,9628.718142,76.570323
47.08322,1665.40453,9667.003304,57.427742
47.085771,1761.117434,9609.575562,191.425808
47.088322,1722.832272,9609.575562,19.142581
47.090873,1684.54711,9647.860723,114.855485
47.093424,1799.402595,9647.860723,248.85355
47.095975,1684.54711,9609.575562,-57.427742
47.098526,1627.119368,9628.718142,0
47.101077,1780.260014,9705.288466,287.138712
47.103629,1741.974853,9628.718142,57.427742
47.10618,1741.974853,9609.575562,76.570323
47.108732,1741.974853,9724.431046,153.140646
47.111284,1722.832272,9513.862658,76.570323
47.113835,1627.119368,9628.718142,114.855485
47.116387,1684.54711,9609.575562,153.140646
47.118939,1761.117434,9628.718142,38.285162
47.121491,1646.261949,9571.2904,19.142581
47.124043,1818.545176,9686.145885,267.996131
47.126595,1722.832272,9647.860723,19.142581
47.129147,1703.689691,9609.575562,172.283227
47.131699,1741.974853,9724.431046,248.85355
47.134251,1703.689691,9590.432981,57.427742
47.136803,1665.40453,9667.003304,76.570323
47.139354,1780.260014,9647.860723,191.425808
47.141906,1703.689691,9705.288466,38.285162
47.144458,1646.261949,9667.003304,153.140646
47.14701,1780.260014,9609.575562,153.140646
47.149562,1741.974853,9628.718142,57.427742
47.152114,1703.689691,9609.575562,57.427742
47.154666,1741.974853,9647.860723,133.998066
47.157218,1761.117434,9571.2904,38.285162
47.15977,1703.689691,9552.147819,95.712904
47.162322,1741.974853,9571.2904,172.283227
47.164873,1780.260014,9609.575562,133.998066
47.167425,1722.832272,9609.575562,76.570323
47.169977,1741.974853,9609.575562,76.570323
47.172529,1722.832272,9743.573627,114.855485
47.175081,1722.832272,9609.575562,-38.285162
47.177633,1703.689691,9686.145885,133.998066
47.180185,1722.832272,9590.432981,76.570323
47.182737,1646.261949,9667.003304,38.285162
47.185289,1741.974853,9552.147819,76.570323
47.187841,1741.974853,9686.145885,287.138712
47.190393,1684.54711,9686.145885,38.285162
47.192945,1780.260014,9647.860723,57.427742
47.195498,1761.117434,9724.431046,210.568389
47.19805,1646.261949,9609.575562,0
47.200602,1741.974853,9609.575562,133.998066
47.203155,1703.689691,9667.003304,76.570323
47.205707,1684.54711,9571.2904,95.712904
47.208259,1703.689691,9590.432981,57.427742
47.210812,1665.40453,9628.718142,153.140646
47.213364,1780.260014,9609.575562,172.283227
47.215917,1780.260014,9590.432981,38.285162
47.218469,1588.834206,9667.003304,38.285162
47.221021,1780.260014,9552.147819,133.998066
47.223574,1703.689691,9628.718142,38.285162
47.226126,1665.40453,9647.860723,114.855485
47.228678,1780.260014,9628.718142,133.998066
47.231231,1703.689691,9647.860723,-19.142581
47.233783,1741.974853,9667.003304,210.568389
47.236335,1703.689691,9647.860723,133.998066
47.238888,1761.117434,9628.718142,19.142581
47.24144,1703.689691,9609.575562,133.998066
47.243993,1780.260014,9647.860723,191.425808
47.246545,1722.832272,9590.432981,38.285162
47.249097,1761.117434,9724.431046,114.855485
47.25165,1684.54711,9609.575562,210.568389
47.254202,1722.832272,9571.2904,19.142581
47.256754,1722.832272,9705.288466,229.71097
47.259307,1722.832272,9590.432981,133.998066
47.261859,1741.974853,9609.575562,57.427742
47.264411,1780.260014,9647.860723,133.998066
47.266964,1646.261949,9667.003304,114.855485
47.269516,1780.260014,9552.147819,172.283227
47.272069,1646.261949,9647.860723,0
47.274621,1761.117434,9628.718142,229.71097
47.277173,1722.832272,9647.860723,38.285162
47.279726,1780.260014,9609.575562,153.140646
47.282278,1703.689691,9552.147819,172.283227
47.28483,1722.832272,9647.860723,133.998066
47.287383,1722.832272,9552.147819,114.855485
47.289935,1741.974853,9609.575562,172.283227
47.292459,1741.974853,9647.860723,133.998066
47.294982,1646.261949,9647.860723,38.285162
47.297506,1741.974853,9705.288466,153.140646
47.300029,1703.689691,9647.860723,95.712904
47.302553,1684.54711,9552.147819,57.427742
47.305077,1703.689691,9667.003304,229.71097
47.3076,1646.261949,9609.575562,38.285162
47.310124,1665.40453,9628.718142,95.712904
47.312647,1780.260014,9647.860723,191.425808
47.315171,1703.689691,9628.718142,38.285162
47.317694,1703.689691,9647.860723,57.427742
47.320218,1703.689691,9628.718142,0
47.322742,1761.117434,9628.718142,172.283227
47.325265,1741.974853,9647.860723,76.570323
47.327789,1703.689691,9667.003304,57.427742
47.330312,1607.976787,9628.718142,38.285162
47.332836,1684.54711,9647.860723,191.425808
47.33536,1703.689691,9533.005238,19.142581
47.337883,1684.54711,9647.860723,133.998066
47.340407,1703.689691,9590.432981,38.285162
47.34293,1780.260014,9647.860723,57.427742
47.345454,1684.54711,9686.145885,133.998066
47.347977,1684.54711,9628.718142,153.140646
47.350501,1722.832272,9571.2904,38.285162
47.353025,1703.689691,9743.573627,114.855485
47.355548,1722.832272,9590.432981,57.427742
47.358072,1741.974853,9590.432981,19.142581
47.360595,1780.260014,9647.860723,191.425808
47.363119,1780.260014,9513.862658,-19.142581
47.365643,1799.402595,9628.718142,153.140646
47.368166,1703.689691,9590.432981,76.570323
47.37069,1799.402595,9590.432981,133.998066
47.373213,1780.260014,9647.860723,133.998066
47.375737,1646.261949,9724.431046,95.712904
47.37826,1761.117434,9628.718142,248.85355
47.380784,1703.689691,9590.432981,-38.285162
47.383308,1722.832272,9628.718142,191.425808
47.385831,1722.832272,9590.432981,133.998066
47.388355,1780.260014,9609.575562,76.570323
47.390878,1741.974853,9647.860723,191.425808
47.393408,1684.54711,9571.2904,95.712904
47.395937,1741.974853,9647.860723,133.998066
47.398467,1665.40453,9724.431046,76.570323
47.400996,1684.54711,9667.003304,306.281293
47.403525,1722.832272,9590.432981,38.285162
47.406055,1684.54711,9667.003304,172.283227
47.408584,1761.117434,9667.003304,172.283227
47.411114,1818.545176,9590.432981,57.427742
47.413643,1741.974853,9647.860723,133.998066
47.416173,1780.260014,9667.003304,210.568389
47.418702,1703.689691,9647.860723,0
47.421231,1722.832272,9667.003304,114.855485
47.423761,1684.54711,9724.431046,153.140646
47.42629,1741.974853,9609.575562,133.998066
47.42882,1703.689691,9647.860723,95.712904
47.431349,1741.974853,9590.432981,57.427742
47.433878,1780.260014,9647.860723,153.140646
47.436408,1703.689691,9590.432981,57.427742
47.438937,1684.54711,9705.288466,95.712904
47.441467,1703.689691,9628.718142,76.570323
47.443996,1703.689691,9590.432981,133.998066
47.446526,1722.832272,9609.575562,76.570323
47.449055,1722.832272,9667.003304,172.283227
47.451584,1646.261949,9647.860723,95.712904
47.454114,1665.40453,9724.431046,133.998066
47.456643,1780.260014,9647.860723,191.425808
47.459173,1665.40453,9647.860723,95.712904
47.461702,1646.261949,9724.431046,38.285162
47.464232,1799.402595,9590.432981,210.568389
47.466761,1646.261949,9609.575562,0
47.46929,1761.117434,9667.003304,133.998066
47.47182,1665.40453,9743.573627,38.285162
47.474349,1703.689691,9571.2904,19.142581
47.476879,1722.832272,9781.858789,76.570323
47.479408,1607.976787,9724.431046,95.712904
47.481937,1703.689691,9686.145885,57.427742
47.484467,1799.402595,9686.145885,38.285162
47.486996,1703.689691,9590.432981,76.570323
47.489526,1722.832272,9552.147819,114.855485
47.492055,1741.974853,9552.147819,-57.427742
47.494589,1761.117434,9686.145885,229.71097
47.497123,1607.976787,9609.575562,0
47.499657,1761.117434,9667.003304,153.140646
47.502191,1703.689691,9724.431046,95.712904
47.504725,1761.117434,9590.432981,191.425808
47.507259,1722.832272,9590.432981,38.285162
47.509793,1722.832272,9647.860723,133.998066
47.512326,1684.54711,9647.860723,133.998066
47.51486,1780.260014,9628.718142,-38.285162
47.517394,1607.976787,9628.718142,114.855485
47.519928,1799.402595,9609.575562,248.85355
47.522462,1684.54711,9647.860723,-57.427742
47.524996,1780.260014,9647.860723,172.283227
47.52753,1703.689691,9590.432981,133.998066
47.530064,1761.117434,9571.2904,76.570323
47.532598,1703.689691,9686.145885,172.283227
47.535132,1722.832272,9667.003304,191.425808
47.537666,1818.545176,9686.145885,38.285162
47.540199,1703.689691,9667.003304,76.570323
47.542733,1703.689691,9724.431046,210.568389
47.545267,1741.974853,9686.145885,38.285162
47.547801,1722.832272,9686.145885,76.570323
47.550335,1741.974853,9647.860723,172.283227
47.552869,1722.832272,9590.432981,76.570323
47.555403,1703.689691,9628.718142,0
47.557937,1703.689691,9724.431046,210.568389
47.560471,1741.974853,9590.432981,38.285162
47.563005,1722.832272,9609.575562,76.570323
47.565539,1799.402595,9590.432981,248.85355
47.568072,1722.832272,9590.432981,38.285162
47.570606,1722.832272,9609.575562,172.283227
47.57314,1780.260014,9609.575562,172.283227
47.575674,1722.832272,9705.288466,38.285162
47.578208,1684.54711,9609.575562,153.140646
47.580742,1703.689691,9667.003304,172.283227
47.583276,1703.689691,9552.147819,114.855485
47.58581,1665.40453,9590.432981,38.285162
47.588344,1665.40453,9609.575562,76.570323
47.590878,1799.402595,9609.575562,191.425808
47.593412,1703.689691,9590.432981,38.285162
47.59595,1684.54711,9647.860723,57.427742
47.598488,1761.117434,9667.003304,76.570323
47.601026,1741.974853,9609.575562,133.998066
47.603564,1703.689691,9686.145885,38.285162
47.606102,1703.689691,9628.718142,248.85355
47.60864,1627.119368,9647.860723,0
47.611178,1722.832272,9628.718142,191.425808
47.613716,1684.54711,9686.145885,114.855485
47.616254,1665.40453,9590.432981,114.855485
47.618792,1703.689691,9609.575562,95.712904
47.62133,1741.974853,9647.860723,191.425808
47.623868,1703.689691,9590.432981,-38.285162
47.626406,1761.117434,9647.860723,133.998066
47.628944,1722.832272,9590.432981,133.998066
47.631482,1665.40453,9628.718142,153.140646
47.63402,1703.689691,9628.718142,76.570323
47.636558,1780.260014,9609.575562,76.570323
47.639096,1646.261949,9647.860723,191.425808
47.641634,1703.689691,9647.860723,114.855485
47.644172,1761.117434,9667.003304,153.140646
47.64671,1741.974853,9628.718142,153.140646
47.649248,1780.260014,9667.003304,114.855485
47.651786,1703.689691,9647.860723,133.998066
47.654324,1703.689691,9705.288466,153.140646
47.656862,1780.260014,9552.147819,76.570323
47.6594,1703.689691,9686.145885,38.285162
47.661938,1780.260014,9590.432981,133.998066
47.664476,1722.832272,9590.432981,38.285162
47.667014,1799.402595,9590.432981,133.998066
47.669552,1722.832272,9724.431046,172.283227
47.67209,1818.545176,9609.575562,38.285162
47.674628,1684.54711,9705.288466,114.855485
47.677166,1780.260014,9609.575562,172.283227
47.679704,1780.260014,9686.145885,114.855485
47.682242,1703.689691,9628.718142,76.570323
47.68478,1703.689691,9628.718142,114.855485
47.687318,1818.545176,9590.432981,0
47.689856,1761.117434,9743.573627,114.855485
47.692394,1703.689691,9686.145885,76.570323
47.694932,1722.832272,9590.432981,76.570323
47.697473,1703.689691,9571.2904,57.427742
47.700014,1818.545176,9667.003304,229.71097
47.702556,1741.974853,9571.2904,0
47.705097,1684.54711,9647.860723,133.998066
47.707638,1684.54711,9647.860723,153.140646
47.710179,1722.832272,9590.432981,38.285162
47.71272,1646.261949,9590.432981,57.427742
47.715261,1703.689691,9667.003304,229.71097
47.717802,1741.974853,9590.432981,0
47.720343,1780.260014,9609.575562,172.283227
47.722884,1646.261949,9628.718142,95.712904
47.725425,1780.260014,9609.575562,57.427742
47.727966,1684.54711,9667.003304,133.998066
47.730507,1665.40453,9609.575562,57.427742
47.733048,1761.117434,9724.431046,172.283227
47.73559,1684.54711,9609.575562,133.998066
47.738131,1665.40453,9686.145885,172.283227
47.740672,1780.260014,9609.575562,172.283227
47.743213,1703.689691,9628.718142,76.570323
47.745754,1722.832272,9667.003304,114.855485
47.748295,1684.54711,9667.003304,133.998066
47.750836,1646.261949,9647.860723,-19.142581
47.753377,1741.974853,9647.860723,76.570323
47.755918,1722.832272,9647.860723,76.570323
47.758459,1684.54711,9571.2904,0
47.761,1646.261949,9647.860723,95.712904
47.763541,1684.54711,9609.575562,133.998066
47.766082,1646.261949,9609.575562,114.855485
47.768624,1722.832272,9571.2904,57.427742
47.771165,1703.689691,9743.573627,172.283227
47.773706,1741.974853,9552.147819,172.283227
47.776247,1607.976787,9647.860723,0
47.778788,1722.832272,9705.288466,210.568389
47.781329,1741.974853,9609.575562,153.140646
47.78387,1703.689691,9590.432981,0
47.786411,1722.832272,9743.573627,114.855485
47.788952,1799.402595,9571.2904,95.712904
47.791493,1741.974853,9647.860723,133.998066
47.794034,1684.54711,9647.860723,133.998066
47.796575,1780.260014,9628.718142,133.998066
49.387096,1780.260014,9628.718142,38.285162
49.389642,1646.261949,9552.147819,38.285162
49.392187,1761.117434,9667.003304,191.425808
49.394733,1818.545176,9628.718142,76.570323
49.397278,1684.54711,9647.860723,133.998066
49.399824,1703.689691,9590.432981,133.998066
49.402369,1780.260014,9533.005238,76.570323
49.404915,1665.40453,9628.718142,114.855485
49.40746,1703.689691,9552.147819,210.568389
49.410006,1761.117434,9590.432981,38.285162
49.412551,1703.689691,9628.718142,0
49.415097,1799.402595,9647.860723,248.85355
49.417642,1741.974853,9590.432981,-38.285162
49.420188,1646.261949,9609.575562,-19.142581
49.422734,1722.832272,9667.003304,229.71097
49.425251,1703.689691,9628.718142,57.427742
49.427769,1703.689691,9686.145885,133.998066
49.430286,1780.260014,9628.718142,76.570323
49.432804,1722.832272,9609.575562,153.140646
49.435321,1722.832272,9533.005238,114.855485
49.437839,1646.261949,9609.575562,95.712904
49.440356,1818.545176,9571.2904,76.570323
49.442874,1646.261949,9590.432981,76.570323
49.445391,1780.260014,9647.860723,133.998066
49.447909,1741.974853,9609.575562,133.998066
49.450426,1722.832272,9667.003304,76.570323
49.452944,1741.974853,9686.145885,95.712904
49.455461,1780.260014,9647.860723,191.425808
49.457979,1703.689691,9647.860723,57.427742
49.460497,1684.54711,9609.575562,76.570323
49.463014,1741.974853,9667.003304,133.998066
49.465532,1722.832272,9628.718142,57.427742
49.468049,1722.832272,9667.003304,95.712904
49.470567,1703.689691,9552.147819,172.283227
49.473084,1722.832272,9609.575562,114.855485
49.475602,1722.832272,9628.718142,0
49.478119,1741.974853,9628.718142,153.140646
49.480637,1569.691626,9667.003304,76.570323
49.483154,1799.402595,9609.575562,76.570323
49.485672,1607.976787,9705.288466,114.855485
49.488189,1741.974853,9647.860723,114.855485
49.490707,1761.117434,9609.575562,133.998066
49.493225,1741.974853,9667.003304,76.570323
49.495742,1684.54711,9647.860723,133.998066
49.49826,1722.832272,9628.718142,19.142581
49.500777,1780.260014,9609.575562,172.283227
49.503295,1703.689691,9724.431046,57.427742
49.505812,1780.260014,9609.575562,57.427742
49.50833,1703.689691,9686.145885,133.998066
49.510847,1646.261949,9628.718142,57.427742
49.513365,1741.974853,9609.575562,133.998066
49.515882,1684.54711,9571.2904,172.283227
49.5184,1703.689691,9667.003304,114.855485
49.520917,1741.974853,9552.147819,76.570323
49.523435,1684.54711,9647.860723,172.283227
49.525959,1761.117434,9667.003304,248.85355
49.528483,1780.260014,9590.432981,95.712904
49.531007,1703.689691,9647.860723,95.712904
49.533532,1722.832272,9609.575562,191.425808
49.536056,1780.260014,9628.718142,133.998066
49.53858,1646.261949,9590.432981,-19.142581
49.541104,1761.117434,9724.431046,325.423874
49.543628,1780.260014,9571.2904,-19.142581
49.546152,1780.260014,9647.860723,191.425808
49.548676,1780.260014,9667.003304,133.998066
49.551201,1780.260014,9647.860723,133.998066
49.553725,1703.689691,9628.718142,57.427742
49.556249,1799.402595,9686.145885,267.996131
49.558773,1665.40453,9590.432981,0
49.561297,1722.832272,9552.147819,133.998066
49.563821,1684.54711,9667.003304,133.998066
49.566345,1722.832272,9609.575562,76.570323
49.568869,1646.261949,9686.145885,133.998066
49.571394,1722.832272,9609.575562,76.570323
49.573918,1799.402595,9647.860723,191.425808
49.576442,1627.119368,9647.860723,19.142581
49.578966,1780.260014,9667.003304,191.425808
49.58149,1741.974853,9667.003304,133.998066
49.584014,1607.976787,9609.575562,0
49.586538,1684.54711,9686.145885,38.285162
49.589063,1761.117434,9609.575562,153.140646
49.591587,1646.261949,9609.575562,19.142581
49.594111,1780.260014,9590.432981,191.425808
49.596635,1722.832272,9609.575562,172.283227
49.599159,1722.832272,9628.718142,0
49.601683,1741.974853,9590.432981,133.998066
49.604207,1703.689691,9705.288466,19.142581
49.606732,1741.974853,9590.432981,133.998066
49.609256,1646.261949,9647.860723,57.427742
49.61178,1722.832272,9667.003304,210.568389
49.614304,1646.261949,9609.575562,0
49.616828,1780.260014,9647.860723,172.283227
49.619352,1646.261949,9647.860723,57.427742
49.621876,1684.54711,9590.432981,76.570323
49.624401,1703.689691,9628.718142,76.570323
49.62693,1780.260014,9609.575562,153.140646
49.629459,1646.261949,9667.003304,95.712904
49.631988,1722.832272,9628.718142,57.427742
49.634518,1761.117434,9667.003304,210.568389
49.637047,1684.54711,9705.288466,57.427742
49.639576,1799.402595,9590.432981,114.855485
49.642105,1684.54711,9628.718142,114.855485
49.644635,1780.260014,9647.860723,153.140646
49.647164,1780.260014,9590.432981,38.285162
49.649693,1703.689691,9628.718142,57.427742
49.652222,1761.117434,9686.145885,191.425808
49.654752,1703.689691,9628.718142,19.142581
49.657281,1703.689691,9724.431046,38.285162
49.65981,1818.545176,9667.003304,210.568389
49.662339,1780.260014,9513.862658,38.285162
49.664869,1741.974853,9743.573627,114.855485
49.667398,1780.260014,9667.003304,114.855485
49.669927,1761.117434,9590.432981,76.570323
49.672456,1646.261949,9686.145885,133.998066
49.674986,1684.54711,9647.860723,153.140646
49.677515,1741.974853,9552.147819,38.285162
49.680044,1703.689691,9686.145885,210.568389
49.682573,1722.832272,9609.575562,95.712904
49.685103,1875.972918,9609.575562,114.855485
49.687632,1627.119368,9667.003304,38.285162
49.690161,1722.832272,9628.718142,172.283227
49.69269,1799.402595,9609.575562,153.140646
49.69522,1646.261949,9590.432981,38.285162
49.697749,1761.117434,9647.860723,133.998066
49.700278,1780.260014,9609.575562,76.570323
49.702807,1741.974853,9647.860723,172.283227
49.705337,1741.974853,9647.860723,133.998066
49.707866,1799.402595,9571.2904,153.140646
49.710395,1703.689691,9590.432981,-38.285162
49.712924,1818.545176,9667.003304,172.283227
49.715454,1780.260014,9686.145885,38.285162
49.717983,1703.689691,9590.432981,0
49.720512,1703.689691,9667.003304,172.283227
49.723041,1703.689691,9628.718142,76.570323
49.725571,1722.832272,9513.862658,76.570323
49.728104,1646.261949,9667.003304,95.712904
49.730637,1684.54711,9667.003304,114.855485
49.733171,1741.974853,9705.288466,76.570323
49.735704,1684.54711,9647.860723,76.570323
49.738237,1722.832272,9590.432981,133.998066
49.740771,1684.54711,9686.145885,76.570323
49.743304,1761.117434,9686.145885,57.427742
49.745837,1684.54711,9667.003304,133.998066
49.74837,1741.974853,9647.860723,153.140646
49.750904,1684.54711,9647.860723,-95.712904
49.753437,1741.974853,9686.145885,172.283227
49.75597,1780.260014,9686.145885,133.998066
49.758504,1761.117434,9609.575562,0
49.761037,1741.974853,9647.860723,191.425808
49.76357,1665.40453,9590.432981,0
49.766104,1780.260014,9609.575562,76.570323
49.768637,1665.40453,9647.860723,172.283227
49.77117,1684.54711,9609.575562,57.427742
49.773704,1741.974853,9628.718142,114.855485
49.776237,1665.40453,9571.2904,114.855485
49.77877,1761.117434,9762.716208,95.712904
49.781304,1761.117434,9609.575562,57.427742
49.783837,1741.974853,9609.575562,153.140646
49.78637,1761.117434,9686.145885,153.140646
49.788904,1761.117434,9628.718142,76.570323
49.791437,1665.40453,9667.003304,76.570323
49.79397,1703.689691,9667.003304,76.570323
49.796504,1799.402595,9513.862658,38.285162
49.799037,1646.261949,9647.860723,57.427742
49.80157,1722.832272,9571.2904,172.283227
49.804104,1799.402595,9571.2904,172.283227
49.806637,1646.261949,9647.860723,19.142581
49.80917,1761.117434,9590.432981,248.85355
49.811704,1741.974853,9647.860723,-38.285162
49.814237,1761.117434,9609.575562,172.283227
49.81677,1665.40453,9686.145885,191.425808
49.819304,1722.832272,9590.432981,0
49.821837,1780.260014,9667.003304,153.140646
49.82437,1780.260014,9667.003304,210.568389
49.826904,1741.974853,9513.862658,95.712904
49.829441,1703.689691,9628.718142,57.427742
49.831978,1741.974853,9647.860723,191.425808
49.834515,1703.689691,9590.432981,19.142581
49.837052,1722.832272,9609.575562,153.140646
49.83959,1703.689691,9647.860723,133.998066
49.842127,1684.54711,9647.860723,172.283227
49.844664,1722.832272,9590.432981,76.570323
49.847201,1684.54711,9590.432981,76.570323
49.849738,1799.402595,9647.860723,133.998066
49.852275,1703.689691,9628.718142,0
49.854813,1722.832272,9667.003304,153.140646
49.85735,1646.261949,9628.718142,76.570323
49.859887,1741.974853,9667.003304,95.712904
49.862424,1703.689691,9628.718142,-38.285162
49.864961,1722.832272,9590.432981,172.283227
49.867499,1703.689691,9609.575562,57.427742
49.870036,1703.689691,9628.718142,57.427742
49.872573,1780.260014,9609.575562,172.283227
49.87511,1646.261949,9609.575562,95.712904
49.877647,1665.40453,9628.718142,114.855485
49.880185,1684.54711,9628.718142,172.283227
49.882722,1761.117434,9571.2904,57.427742
49.885259,1703.689691,9628.718142,0
49.887796,1818.545176,9667.003304,210.568389
49.890333,1588.834206,9609.575562,38.285162
49.892871,1741.974853,9647.860723,172.283227
49.895408,1703.689691,9705.288466,76.570323
49.897945,1741.974853,9628.718142,0
49.900482,1780.260014,9628.718142,57.427742
49.903019,1684.54711,9667.003304,133.998066
49.905557,1741.974853,9609.575562,133.998066
49.908094,1722.832272,9686.145885,76.570323
49.910634,1607.976787,9724.431046,38.285162
49.913174,1818.545176,9533.005238,210.568389
49.915713,1665.40453,9628.718142,-19.142581
49.918253,1703.689691,9667.003304,133.998066
49.920793,1741.974853,9667.003304,133.998066
49.923333,1799.402595,9686.145885,38.285162
49.925873,1627.119368,9667.003304,95.712904
49.928413,1741.974853,9609.575562,248.85355
49.930953,1646.261949,9609.575562,-76.570323
49.933493,1703.689691,9724.431046,210.568389
49.936033,1722.832272,9647.860723,76.570323
49.938572,1818.545176,9628.718142,76.570323
49.941112,1703.689691,9628.718142,38.285162
49.943652,1741.974853,9647.860723,191.425808
49.946192,1741.974853,9647.860723,-38.285162
49.948732,1684.54711,9667.003304,76.570323
49.951272,1722.832272,9667.003304,153.140646
49.953812,1761.117434,9609.575562,38.285162
49.956352,1665.40453,9609.575562,76.570323
49.958891,1722.832272,9667.003304,114.855485
49.961431,1780.260014,9590.432981,114.855485
49.963971,1627.119368,9609.575562,95.712904
49.966511,1761.117434,9667.003304,153.140646
49.969051,1722.832272,9647.860723,133.998066
49.971591,1646.261949,9647.860723,19.142581
49.974131,1761.117434,9724.431046,153.140646
49.976671,1761.117434,9667.003304,153.140646
49.979211,1703.689691,9628.718142,-38.285162
49.98175,1722.832272,9667.003304,172.283227
49.98429,1761.117434,9667.003304,114.855485
49.98683,1646.261949,9628.718142,57.427742
49.98937,1722.832272,9724.431046,210.568389
49.99191,1761.117434,9628.718142,19.142581
49.99445,1741.974853,9609.575562,172.283227
49.99699,1722.832272,9609.575562,153.140646
49.99953,1703.689691,9571.2904,76.570323
50.00207,1684.54711,9609.575562,57.427742
50.004609,1627.119368,9705.288466,153.140646
50.007149,1799.402595,9571.2904,133.998066
50.009689,1741.974853,9590.432981,153.140646
50.012203,1646.261949,9609.575562,-38.285162
50.014716,1741.974853,9724.431046,153.140646
50.01723,1722.832272,9552.147819,133.998066
50.019743,1741.974853,9590.432981,153.140646
50.022257,1646.261949,9628.718142,114.855485
50.024771,1761.117434,9552.147819,133.998066
50.027284,1646.261949,9647.860723,0
50.029798,1741.974853,9552.147819,172.283227
50.032311,1607.976787,9647.860723,57.427742
50.034825,1722.832272,9628.718142,-38.285162
50.037339,1761.117434,9743.573627,172.283227
50.039852,1703.689691,9647.860723,95.712904
50.042366,1856.830338,9628.718142,95.712904
50.044879,1703.689691,9667.003304,191.425808
50.047393,1741.974853,9590.432981,76.570323
50.049906,1722.832272,9705.288466,57.427742
50.05242,1665.40453,9628.718142,114.855485
50.054934,1703.689691,9590.432981,76.570323
50.057447,1780.260014,9609.575562,133.998066
50.059961,1703.689691,9667.003304,76.570323
50.062474,1684.54711,9609.575562,153.140646
50.064988,1780.260014,9647.860723,133.998066
50.067501,1627.119368,9724.431046,57.427742
50.070015,1780.260014,9724.431046,191.425808
50.072529,1741.974853,9571.2904,0
50.075042,1684.54711,9609.575562,95.712904
50.077556,1684.54711,9647.860723,210.568389
50.080069,1761.117434,9590.432981,0
50.082583,1741.974853,9667.003304,172.283227
50.085096,1646.261949,9762.716208,133.998066
50.08761,1799.402595,9552.147819,76.570323
50.090124,1722.832272,9647.860723,57.427742
50.092637,1818.545176,9628.718142,248.85355
50.095151,1722.832272,9628.718142,76.570323
50.097664,1722.832272,9724.431046,114.855485
50.100178,1818.545176,9686.145885,191.425808
50.102691,1761.117434,9590.432981,76.570323
50.105205,1703.689691,9628.718142,76.570323
50.107719,1799.402595,9628.718142,210.568389
50.110232,1780.260014,9628.718142,38.285162
50.112754,1646.261949,9667.003304,153.140646
50.115275,1722.832272,9647.860723,76.570323
50.117797,1780.260014,9628.718142,133.998066
50.120318,1607.976787,9475.577496,57.427742
50.122839,1684.54711,9743.573627,133.998066
50.125361,1741.974853,9609.575562,57.427742
50.127882,1646.261949,9590.432981,57.427742
50.130404,1703.689691,9628.718142,76.570323
50.132925,1684.54711,9628.718142,133.998066
50.135447,1703.689691,9628.718142,38.285162
50.137968,1684.54711,9609.575562,133.998066
50.14049,1646.261949,9686.145885,57.427742
50.143011,1722.832272,9590.432981,57.427742
50.145533,1780.260014,9628.718142,133.998066
50.148054,1722.832272,9609.575562,133.998066
50.150576,1627.119368,9743.573627,133.998066
50.153097,1703.689691,9590.432981,0
50.155618,1722.832272,9667.003304,229.71097
50.15814,1588.834206,9647.860723,0
50.160661,1684.54711,9609.575562,172.283227
50.163183,1665.40453,9647.860723,153.140646
50.165704,1703.689691,9513.862658,0
50.168226,1722.832272,9628.718142,57.427742
50.170747,1722.832272,9647.860723,153.140646
50.173269,1665.40453,9667.003304,57.427742
50.17579,1780.260014,9647.860723,133.998066
50.178312,1627.119368,9686.145885,-38.285162
50.180833,1741.974853,9609.575562,191.425808
50.183355,1665.40453,9628.718142,-19.142581
50.185876,1703.689691,9628.718142,172.283227
50.188397,1741.974853,9647.860723,267.996131
50.190919,1646.261949,9609.575562,19.142581
50.19344,1703.689691,9686.145885,133.998066
50.195962,1741.974853,9647.860723,133.998066
50.198483,1722.832272,9647.860723,57.427742
50.201005,1722.832272,9647.860723,133.998066
50.203526,1646.261949,9628.718142,95.712904
50.206048,1722.832272,9628.718142,76.570323
50.208569,1684.54711,9647.860723,114.855485
50.211091,1703.689691,9686.145885,210.568389
50.213618,1761.117434,9590.432981,-19.142581
50.216146,1722.832272,9724.431046,287.138712
50.218674,1703.689691,9647.860723,-38.285162
50.221202,1799.402595,9724.431046,95.712904
50.22373,1665.40453,9686.145885,114.855485
50.226258,1741.974853,9647.860723,191.425808
50.228785,1780.260014,9628.718142,76.570323
50.231313,1684.54711,9590.432981,133.998066
50.233841,1684.54711,9628.718142,153.140646
50.236369,1818.545176,9590.432981,76.570323
50.238897,1722.832272,9628.718142,133.998066
50.241425,1722.832272,9686.145885,172.283227
50.243952,1722.832272,9686.145885,19.142581
50.24648,1703.689691,9628.718142,76.570323
50.249008,1722.832272,9705.288466,95.712904
50.251536,1799.402595,9647.860723,76.570323
50.254064,1703.689691,9647.860723,95.712904
50.256592,1741.974853,9609.575562,172.283227
50.259119,1703.689691,9705.288466,38.285162
50.261647,1646.261949,9647.860723,95.712904
50.264175,1780.260014,9647.860723,191.425808
50.266703,1703.689691,9590.432981,19.142581
50.269231,1684.54711,9590.432981,172.283227
50.271759,1703.689691,9647.860723,114.855485
50.274286,1722.832272,9686.145885,133.998066
50.276814,1780.260014,9552.147819,191.425808
50.279342,1588.834206,9724.431046,38.285162
50.28187,1780.260014,9647.860723,172.283227
50.284398,1703.689691,9590.432981,133.998066
50.286926,1684.54711,9628.718142,38.285162
50.289453,1799.402595,9628.718142,153.140646
50.291981,1703.689691,9552.147819,114.855485
50.294509,1646.261949,9609.575562,-38.285162
50.297037,1722.832272,9686.145885,267.996131
50.299565,1646.261949,9647.860723,57.427742
50.302093,1607.976787,9628.718142,19.142581
50.30462,1780.260014,9686.145885,267.996131
50.307148,1588.834206,9609.575562,-76.570323
50.309676,1761.117434,9590.432981,133.998066
50.312204,1780.260014,9609.575562,57.427742
51.924175,1741.974853,9609.575562,76.570323
51.926706,1703.689691,9667.003304,76.570323
51.929236,1818.545176,9647.860723,229.71097
51.931767,1703.689691,9590.432981,-38.285162
51.934297,1761.117434,9743.573627,172.283227
51.936833,1799.402595,9647.860723,133.998066
51.939369,1780.260014,9667.003304,57.427742
51.941905,1703.689691,9686.145885,133.998066
51.944441,1703.689691,9590.432981,0
51.946976,1799.402595,9647.860723,191.425808
51.949512,1646.261949,9609.575562,38.285162
51.952048,1799.402595,9686.145885,210.568389
51.954584,1703.689691,9628.718142,38.285162
51.957119,1684.54711,9609.575562,57.427742
51.959655,1722.832272,9628.718142,133.998066
51.962191,1684.54711,9647.860723,57.427742
51.964727,1703.689691,9590.432981,76.570323
51.967263,1646.261949,9647.860723,19.142581
51.969798,1818.545176,9590.432981,191.425808
51.972334,1741.974853,9609.575562,-57.427742
51.97487,1722.832272,9667.003304,133.998066
51.977406,1646.261949,9686.145885,-19.142581
51.979942,1818.545176,9647.860723,210.568389
51.982477,1684.54711,9609.575562,-38.285162
51.985013,1741.974853,9801.00137,287.138712
51.987549,1722.832272,9590.432981,38.285162
51.990085,1722.832272,9647.860723,76.570323
51.99262,1741.974853,9647.860723,248.85355
51.995156,1722.832272,9609.575562,76.570323
51.997692,1818.545176,9590.432981,57.427742
52.000228,1684.54711,9609.575562,153.140646
52.002764,1741.974853,9552.147819,133.998066
52.005299,1722.832272,9590.432981,133.998066
52.007835,1684.54711,9686.145885,95.712904
52.010371,1684.54711,9609.575562,133.998066
52.012907,1761.117434,9647.860723,114.855485
52.015443,1703.689691,9590.432981,57.427742
52.017978,1761.117434,9705.288466,248.85355
52.020514,1780.260014,9571.2904,95.712904
52.02305,1684.54711,9724.431046,172.283227
52.025586,1761.117434,9743.573627,210.568389
52.028121,1780.260014,9686.145885,-76.570323
52.030657,1799.402595,9647.860723,172.283227
52.033193,1799.402595,9609.575562,248.85355
52.035729,1741.974853,9590.432981,0
52.038269,1741.974853,9667.003304,153.140646
52.040808,1799.402595,9590.432981,248.85355
52.043348,1741.974853,9590.432981,-38.285162
52.045888,1703.689691,9590.432981,-19.142581
52.048428,1799.402595,9647.860723,363.709035
52.050968,1722.832272,9590.432981,19.142581
52.053508,1703.689691,9743.573627,95.712904
52.056047,1741.974853,9609.575562,172.283227
52.058587,1646.261949,9609.575562,95.712904
52.061127,1741.974853,9571.2904,38.285162
52.063667,1722.832272,9628.718142,191.425808
52.066207,1722.832272,9552.147819,133.998066
52.068746,1741.974853,9590.432981,114.855485
52.071286,1741.974853,9647.860723,191.425808
52.073826,1684.54711,9590.432981,95.712904
52.076366,1741.974853,9667.003304,114.855485
52.078906,1799.402595,9647.860723,191.425808
52.081445,1703.689691,9628.718142,57.427742
52.083985,1684.54711,9609.575562,76.570323
52.086525,1741.974853,9647.860723,133.998066
52.089065,1780.260014,9647.860723,133.998066
52.091605,1646.261949,9590.432981,57.427742
52.094145,1684.54711,9628.718142,153.140646
52.096684,1722.832272,9686.145885,133.998066
52.099224,1665.40453,9552.147819,76.570323
52.101764,1761.117434,9686.145885,57.427742
52.104304,1780.260014,9647.860723,133.998066
52.106844,1703.689691,9590.432981,95.712904
52.109383,1741.974853,9552.147819,114.855485
52.111923,1684.54711,9609.575562,153.140646
52.114463,1799.402595,9647.860723,153.140646
52.117003,1722.832272,9590.432981,19.142581
52.119543,1627.119368,9705.288466,76.570323
52.122082,1703.689691,9609.575562,0
52.124622,1722.832272,9647.860723,38.285162
52.127162,1684.54711,9609.575562,76.570323
52.129702,1799.402595,9609.575562,153.140646
52.132242,1703.689691,9590.432981,0
52.134782,1741.974853,9667.003304,191.425808
52.137321,1607.976787,9609.575562,57.427742
52.139864,1799.402595,9552.147819,95.712904
52.142407,1665.40453,9686.145885,114.855485
52.14495,1665.40453,9628.718142,19.142581
52.147492,1818.545176,9647.860723,133.998066
52.150035,1646.261949,9609.575562,-19.142581
52.152578,1818.545176,9571.2904,191.425808
52.155121,1780.260014,9686.145885,133.998066
52.157663,1684.54711,9552.147819,57.427742
52.160206,1741.974853,9667.003304,248.85355
52.162749,1722.832272,9628.718142,0
52.165292,1665.40453,9686.145885,114.855485
52.167834,1780.260014,9590.432981,267.996131
52.170377,1818.545176,9647.860723,76.570323
52.17292,1703.689691,9609.575562,0
52.175463,1703.689691,9590.432981,191.425808
52.178005,1780.260014,9628.718142,38.285162
52.180548,1703.689691,9590.432981,0
52.183091,1741.974853,9628.718142,248.85355
52.185634,1761.117434,9628.718142,19.142581
52.188176,1684.54711,9762.716208,95.712904
52.190719,1780.260014,9647.860723,172.283227
52.193262,1818.545176,9628.718142,133.998066
52.195805,1703.689691,9571.2904,0
52.198347,1722.832272,9686.145885,248.85355
52.20089,1780.260014,9571.2904,57.427742
52.203433,1703.689691,9628.718142,76.570323
52.205976,1703.689691,9628.718142,38.285162
52.208518,1665.40453,9628.718142,114.855485
52.211061,1646.261949,9609.575562,38.285162
52.213604,1722.832272,9667.003304,114.855485
52.216147,1722.832272,9647.860723,133.998066
52.218689,1780.260014,9590.432981,57.427742
52.221232,1665.40453,9628.718142,114.855485
52.223775,1799.402595,9609.575562,153.140646
52.226318,1703.689691,9609.575562,57.427742
52.22886,1780.260014,9590.432981,57.427742
52.231403,1722.832272,9628.718142,133.998066
52.233946,1703.689691,9667.003304,38.285162
52.236489,1741.974853,9609.575562,172.283227
52.239031,1741.974853,9705.288466,114.855485
52.241548,1646.261949,9609.575562,-19.142581
52.244065,1703.689691,9667.003304,153.140646
52.246581,1703.689691,9667.003304,114.855485
52.249098,1646.261949,9667.003304,0
52.251615,1761.117434,9647.860723,172.283227
52.254132,1703.689691,9628.718142,133.998066
52.256648,1703.689691,9628.718142,76.570323
52.259165,1780.260014,9628.718142,76.570323
52.261682,1646.261949,9647.860723,95.712904
52.264199,1761.117434,9628.718142,76.570323
52.266715,1722.832272,9628.718142,38.285162
52.269232,1684.54711,9686.145885,38.285162
52.271749,1799.402595,9628.718142,248.85355
52.274266,1684.54711,9609.575562,-95.712904
52.276782,1684.54711,9628.718142,172.283227
52.279299,1818.545176,9686.145885,153.140646
52.281816,1665.40453,9647.860723,-57.427742
52.284333,1684.54711,9647.860723,153.140646
52.286849,1722.832272,9590.432981,153.140646
52.289366,1684.54711,9647.860723,133.998066
52.291883,1684.54711,9609.575562,76.570323
52.294399,1780.260014,9647.860723,172.283227
52.296916,1741.974853,9705.288466,19.142581
52.299433,1722.832272,9647.860723,172.283227
52.30195,1722.832272,9686.145885,133.998066
52.304466,1741.974853,9590.432981,-19.142581
52.306983,1761.117434,9647.860723,248.85355
52.3095,1741.974853,9609.575562,153.140646
52.312017,1761.117434,9705.288466,76.570323
52.314533,1646.261949,9667.003304,38.285162
52.31705,1722.832272,9590.432981,114.855485
52.319567,1799.402595,9647.860723,133.998066
52.322084,1703.689691,9513.862658,0
52.3246,1684.54711,9686.145885,153.140646
52.327117,1818.545176,9590.432981,76.570323
52.329634,1607.976787,9667.003304,57.427742
52.332151,1722.832272,9609.575562,191.425808
52.334667,1741.974853,9667.003304,133.998066
52.337184,1684.54711,9552.147819,76.570323
52.339701,1684.54711,9590.432981,172.283227
52.342225,1684.54711,9647.860723,153.140646
52.34475,1665.40453,9571.2904,-19.142581
52.347275,1703.689691,9743.573627,210.568389
52.349799,1780.260014,9590.432981,57.427742
52.352324,1665.40453,9628.718142,95.712904
52.354848,1722.832272,9667.003304,210.568389
52.357373,1646.261949,9609.575562,0
52.359898,1684.54711,9552.147819,172.283227
52.362422,1607.976787,9705.288466,133.998066
52.364947,1722.832272,9609.575562,248.85355
52.367472,1684.54711,9647.860723,133.998066
52.369996,1741.974853,9609.575562,-38.285162
52.372521,1741.974853,9705.288466,287.138712
52.375045,1780.260014,9571.2904,57.427742
52.37757,1684.54711,9667.003304,133.998066
52.380095,1646.261949,9762.716208,133.998066
52.382619,1665.40453,9513.862658,38.285162
52.385144,1703.689691,9724.431046,172.283227
52.387668,1646.261949,9647.860723,38.285162
52.390193,1665.40453,9628.718142,229.71097
52.392718,1722.832272,9513.862658,0
52.395242,1703.689691,9762.716208,172.283227
52.397767,1684.54711,9571.2904,95.712904
52.400292,1665.40453,9628.718142,95.712904
52.402816,1741.974853,9667.003304,57.427742
52.405341,1684.54711,9628.718142,114.855485
52.407865,1761.117434,9571.2904,0
52.41039,1703.689691,9628.718142,76.570323
52.412915,1780.260014,9590.432981,76.570323
52.415439,1780.260014,9552.147819,-38.285162
52.417964,1741.974853,9647.860723,172.283227
52.420488,1799.402595,9513.862658,191.425808
52.423013,1780.260014,9590.432981,57.427742
52.425538,1722.832272,9628.718142,76.570323
52.428062,1722.832272,9628.718142,287.138712
52.430587,1703.689691,9590.432981,-153.140646
52.433112,1703.689691,9590.432981,0
52.435636,1761.117434,9647.860723,267.996131
52.438161,1761.117434,9647.860723,76.570323
52.440685,1761.117434,9686.145885,114.855485
52.443216,1722.832272,9609.575562,153.140646
52.445747,1837.687757,9571.2904,76.570323
52.448278,1703.689691,9667.003304,114.855485
52.450809,1665.40453,9609.575562,191.425808
52.45334,1780.260014,9609.575562,19.142581
52.455871,1684.54711,9628.718142,210.568389
52.458401,1741.974853,9667.003304,114.855485
52.460932,1703.689691,9571.2904,76.570323
52.463463,1780.260014,9667.003304,76.570323
52.465994,1741.974853,9686.145885,153.140646
52.468525,1780.260014,9552.147819,76.570323
52.471056,1741.974853,9647.860723,-19.142581
52.473587,1761.117434,9628.718142,191.425808
52.476117,1607.976787,9667.003304,57.427742
52.478648,1646.261949,9628.718142,95.712904
52.481179,1703.689691,9609.575562,38.285162
52.48371,1741.974853,9609.575562,210.568389
52.486241,1722.832272,9609.575562,0
52.488772,1722.832272,9743.573627,191.425808
52.491302,1607.976787,9590.432981,38.285162
52.493833,1684.54711,9667.003304,76.570323
52.496364,1684.54711,9686.145885,95.712904
52.498895,1684.54711,9647.860723,172.283227
52.501426,1665.40453,9590.432981,114.855485
52.503957,1703.689691,9590.432981,-19.142581
52.506488,1780.260014,9686.145885,267.996131
52.509018,1607.976787,9647.860723,-76.570323
52.511549,1646.261949,9686.145885,114.855485
52.51408,1741.974853,9743.573627,210.568389
52.516611,1646.261949,9647.860723,-19.142581
52.519142,1665.40453,9686.145885,76.570323
52.521673,1741.974853,9724.431046,191.425808
52.524203,1665.40453,9705.288466,95.712904
52.526734,1684.54711,9571.2904,57.427742
52.529265,1684.54711,9647.860723,133.998066
52.531796,1761.117434,9628.718142,133.998066
52.534327,1741.974853,9686.145885,57.427742
52.536858,1741.974853,9628.718142,133.998066
52.539389,1818.545176,9590.432981,153.140646
52.541919,1646.261949,9609.575562,57.427742
52.544427,1722.832272,9743.573627,153.140646
52.546935,1684.54711,9686.145885,229.71097
52.549442,1761.117434,9590.432981,76.570323
52.55195,1703.689691,9705.288466,76.570323
52.554457,1722.832272,9628.718142,191.425808
52.556965,1722.832272,9647.860723,133.998066
52.559473,1722.832272,9724.431046,95.712904
52.56198,1761.117434,9609.575562,153.140646
52.564488,1818.545176,9590.432981,38.285162
52.566996,1684.54711,9609.575562,133.998066
52.569503,1799.402595,9628.718142,248.85355
52.572011,1703.689691,9628.718142,0
52.574518,1741.974853,9667.003304,172.283227
52.577026,1741.974853,9609.575562,153.140646
52.579534,1741.974853,9609.575562,76.570323
52.582041,1722.832272,9647.860723,76.570323
52.584549,1780.260014,9724.431046,172.283227
52.587056,1818.545176,9667.003304,114.855485
52.589564,1703.689691,9609.575562,95.712904
52.592072,1722.832272,9705.288466,210.568389
52.594579,1722.832272,9590.432981,76.570323
52.597087,1684.54711,9647.860723,114.855485
52.599594,1761.117434,9667.003304,153.140646
52.602102,1684.54711,9513.862658,0
52.60461,1646.261949,9686.145885,76.570323
52.607117,1665.40453,9628.718142,114.855485
52.609625,1684.54711,9609.575562,133.998066
52.612132,1741.974853,9609.575562,76.570323
52.61464,1741.974853,9647.860723,133.998066
52.617148,1818.545176,9590.432981,76.570323
52.619655,1761.117434,9628.718142,19.142581
52.622163,1799.402595,9647.860723,133.998066
52.624671,1799.402595,9571.2904,210.568389
52.627178,1722.832272,9590.432981,0
52.629686,1780.260014,9686.145885,229.71097
52.632193,1741.974853,9571.2904,76.570323
52.634701,1684.54711,9647.860723,114.855485
52.637209,1741.974853,9686.145885,38.285162
52.639716,1741.974853,9647.860723,172.283227
52.642224,1646.261949,9647.860723,76.570323
52.644742,1722.832272,9628.718142,38.285162
52.64726,1684.54711,9647.860723,172.283227
52.649778,1684.54711,9590.432981,172.283227
52.652296,1607.976787,9571.2904,-95.712904
52.654814,1646.261949,9762.716208,210.568389
52.657332,1703.689691,9571.2904,57.427742
52.65985,1646.261949,9762.716208,133.998066
52.662369,1722.832272,9552.147819,114.855485
52.664887,1684.54711,9667.003304,133.998066
52.667405,1741.974853,9647.860723,133.998066
52.669923,1646.261949,9647.860723,95.712904
52.672441,1780.260014,9609.575562,133.998066
52.674959,1646.261949,9647.860723,-19.142581
52.677477,1799.402595,9686.145885,210.568389
52.679995,1646.261949,9609.575562,57.427742
52.682513,1722.832272,9628.718142,57.427742
52.685031,1722.832272,9705.288466,248.85355
52.68755,1741.974853,9647.860723,133.998066
52.690068,1703.689691,9609.575562,19.142581
52.692586,1722.832272,9667.003304,95.712904
52.695104,1780.260014,9609.575562,153.140646
52.697622,1818.545176,9590.432981,57.427742
52.70014,1684.54711,9609.575562,172.283227
52.702658,1780.260014,9647.860723,133.998066
52.705176,1703.689691,9609.575562,19.142581
52.707694,1780.260014,9590.432981,133.998066
52.710212,1799.402595,9667.003304,153.140646
52.712731,1741.974853,9571.2904,57.427742
52.715249,1799.402595,9647.860723,133.998066
52.717767,1780.260014,9628.718142,210.568389
52.720285,1761.117434,9590.432981,-38.285162
52.722803,1761.117434,9667.003304,172.283227
52.725329,1780.260014,9686.145885,76.570323
52.727856,1818.545176,9609.575562,76.570323
52.730382,1703.689691,9590.432981,76.570323
52.732908,1703.689691,9762.716208,191.425808
52.735435,1780.260014,9513.862658,-19.142581
52.737961,1741.974853,9647.860723,210.568389
52.740487,1665.40453,9628.718142,114.855485
52.743014,1799.402595,9647.860723,57.427742
52.74554,1722.832272,9590.432981,76.570323
52.748067,1684.54711,9628.718142,133.998066
52.750593,1780.260014,9667.003304,133.998066
52.753119,1703.689691,9590.432981,0
52.755646,1665.40453,9590.432981,153.140646
52.758172,1646.261949,9724.431046,95.712904
52.760698,1665.40453,9609.575562,76.570323
52.763225,1703.689691,9743.573627,114.855485
52.765751,1722.832272,9724.431046,114.855485
52.768277,1646.261949,9647.860723,0
52.770804,1741.974853,9667.003304,76.570323
52.77333,1684.54711,9686.145885,191.425808
52.775856,1646.261949,9552.147819,-19.142581
52.778383,1703.689691,9724.431046,114.855485
52.780909,1741.974853,9609.575562,133.998066
52.783436,1703.689691,9647.860723,95.712904
52.785962,1703.689691,9667.003304,114.855485
52.788488,1646.261949,9724.431046,95.712904
52.791015,1684.54711,9647.860723,133.998066
52.793541,1780.260014,9647.860723,76.570323
52.796067,1722.832272,9743.573627,172.283227
52.798594,1761.117434,9686.145885,114.855485
52.80112,1741.974853,9571.2904,-38.285162
52.803646,1703.689691,9667.003304,191.425808
52.806173,1665.40453,9647.860723,95.712904
52.808699,1722.832272,9533.005238,95.712904
52.811225,1703.689691,9628.718142,76.570323
52.813752,1761.117434,9609.575562,191.425808
52.816278,1780.260014,9533.005238,-38.285162
52.818805,1684.54711,9724.431046,267.996131
52.821331,1646.261949,9609.575562,-19.142581
52.823857,1818.545176,9647.860723,172.283227
54.462946,1741.974853,9628.718142,133.998066
54.465483,1799.402595,9590.432981,172.283227
54.468021,1646.261949,9647.860723,95.712904
54.470558,1703.689691,9628.718142,76.570323
54.473095,1741.974853,9724.431046,172.283227
54.475632,1722.832272,9571.2904,38.285162
54.47817,1665.40453,9667.003304,0
54.480707,1722.832272,9743.573627,210.568389
54.483244,1703.689691,9590.432981,0
54.485781,1684.54711,9705.288466,95.712904
54.488319,1627.119368,9667.003304,19.142581
54.490856,1741.974853,9590.432981,133.998066
54.493393,1761.117434,9590.432981,-57.427742
54.49593,1627.119368,9801.00137,172.283227
54.498468,1703.689691,9609.575562,76.570323
54.501005,1761.117434,9686.145885,19.142581
54.503542,1665.40453,9628.718142,114.855485
54.506079,1684.54711,9590.432981,172.283227
54.508617,1703.689691,9590.432981,-19.142581
54.511154,1703.689691,9762.716208,229.71097
54.513691,1684.54711,9647.860723,133.998066
54.516228,1684.54711,9552.147819,19.142581
54.518766,1646.261949,9628.718142,114.855485
54.521303,1780.260014,9571.2904,57.427742
54.52384,1722.832272,9647.860723,19.142581
54.526377,1761.117434,9609.575562,210.568389
54.528915,1780.260014,9724.431046,133.998066
54.531452,1761.117434,9590.432981,153.140646
54.533989,1722.832272,9667.003304,76.570323
54.536526,1818.545176,9686.145885,325.423874
54.539064,1703.689691,9590.432981,38.285162
54.541601,1818.545176,9628.718142,248.85355
54.544138,1684.54711,9609.575562,153.140646
54.546675,1761.117434,9667.003304,114.855485
54.549218,1741.974853,9609.575562,133.998066
54.55176,1722.832272,9667.003304,210.568389
54.554303,1780.260014,9533.005238,76.570323
54.556845,1703.689691,9667.003304,95.712904
54.559388,1684.54711,9628.718142,153.140646
54.561931,1780.260014,9571.2904,95.712904
54.564473,1703.689691,9686.145885,76.570323
54.567016,1780.260014,9609.575562,172.283227
54.569558,1684.54711,9590.432981,76.570323
54.572101,1741.974853,9647.860723,133.998066
54.574643,1761.117434,9647.860723,172.283227
54.577186,1780.260014,9590.432981,172.283227
54.579728,1646.261949,9590.432981,76.570323
54.582271,1646.261949,9628.718142,114.855485
54.584813,1684.54711,9628.718142,133.998066
54.587356,1665.40453,9667.003304,57.427742
54.589898,1722.832272,9590.432981,38.285162
54.592441,1722.832272,9667.003304,172.283227
54.594983,1646.261949,9609.575562,0
54.597526,1684.54711,9628.718142,114.855485
54.600068,1646.261949,9609.575562,-19.142581
54.602611,1665.40453,9590.432981,172.283227
54.605153,1703.689691,9590.432981,76.570323
54.607696,1665.40453,9647.860723,133.998066
54.610238,1703.689691,9590.432981,76.570323
54.612781,1703.689691,9647.860723,0
54.615323,1684.54711,9647.860723,172.283227
54.617866,1722.832272,9571.2904,76.570323
54.620408,1722.832272,9628.718142,-38.285162
54.622951,1684.54711,9724.431046,172.283227
54.625493,1665.40453,9609.575562,57.427742
54.628036,1722.832272,9628.718142,0
54.630578,1684.54711,9705.288466,210.568389
54.633121,1741.974853,9724.431046,133.998066
54.635663,1761.117434,9590.432981,76.570323
54.638206,1684.54711,9628.718142,153.140646
54.640748,1761.117434,9667.003304,153.140646
54.643291,1818.545176,9609.575562,38.285162
54.645833,1665.40453,9724.431046,76.570323
54.648376,1818.545176,9590.432981,248.85355
54.650894,1761.117434,9590.432981,38.285162
54.653413,1684.54711,9628.718142,95.712904
54.655931,1722.832272,9705.288466,114.855485
54.65845,1684.54711,9552.147819,57.427742
54.660968,1722.832272,9628.718142,133.998066
54.663487,1761.117434,9667.003304,210.568389
54.666005,1722.832272,9609.575562,95.712904
54.668524,1646.261949,9609.575562,95.712904
54.671042,1761.117434,9647.860723,191.425808
54.673561,1703.689691,9552.147819,-19.142581
54.676079,1646.261949,9762.716208,133.998066
54.678598,1761.117434,9686.145885,114.855485
54.681116,1703.689691,9667.003304,114.855485
54.683635,1722.832272,9724.431046,95.712904
54.686153,1818.545176,9590.432981,172.283227
54.688671,1684.54711,9686.145885,133.998066
54.69119,1684.54711,9647.860723,172.283227
54.693708,1703.689691,9590.432981,76.570323
54.696227,1761.117434,9628.718142,191.425808
54.698745,1684.54711,9571.2904,0
54.701264,1684.54711,9647.860723,76.570323
54.703782,1799.402595,9609.575562,153.140646
54.706301,1665.40453,9686.145885,95.712904
54.708819,1722.832272,9647.860723,172.283227
54.711338,1703.689691,9590.432981,133.998066
54.713856,1646.261949,9686.145885,0
54.716375,1761.117434,9590.432981,76.570323
54.718893,1761.117434,9667.003304,133.998066
54.721412,1607.976787,9590.432981,95.712904
54.72393,1741.974853,9609.575562,133.998066
54.726449,1684.54711,9628.718142,133.998066
54.728967,1722.832272,9590.432981,57.427742
54.731486,1780.260014,9647.860723,153.140646
54.734004,1665.40453,9667.003304,76.570323
54.736522,1780.260014,9686.145885,95.712904
54.739041,1741.974853,9571.2904,0
54.741559,1703.689691,9628.718142,76.570323
54.744078,1741.974853,9647.860723,153.140646
54.746596,1665.40453,9590.432981,-19.142581
54.749115,1684.54711,9705.288466,95.712904
54.751643,1741.974853,9609.575562,133.998066
54.754171,1722.832272,9686.145885,38.285162
54.756698,1722.832272,9667.003304,153.140646
54.759226,1780.260014,9609.575562,153.140646
54.761754,1646.261949,9647.860723,19.142581
54.764282,1646.261949,9686.145885,172.283227
54.76681,1665.40453,9647.860723,172.283227
54.769338,1684.54711,9590.432981,95.712904
54.771866,1665.40453,9628.718142,172.283227
54.774394,1722.832272,9628.718142,191.425808
