#time,accel_x,accel_y,accel_z
805.469489,1703.689691,9590.432981,267.996131
805.472012,1799.402595,9609.575562,153.140646
805.474534,1607.976787,9686.145885,248.853550
805.477057,1703.689691,9628.718142,287.138712
805.479580,1703.689691,9590.432981,133.998066
805.482103,1646.261949,9762.716208,210.568389
805.484626,1665.404530,9686.145885,287.138712
805.487148,1741.974853,9609.575562,191.425808
805.489671,1741.974853,9647.860723,210.568389
805.492194,1741.974853,9609.575562,191.425808
805.494717,1684.547110,9609.575562,153.140646
805.497240,1665.404530,9590.432981,172.283227
805.499762,1684.547110,9686.145885,229.710970
805.502285,1722.832272,9590.432981,133.998066
805.504808,1703.689691,9724.431046,210.568389
805.507331,1646.261949,9628.718142,287.138712
805.509854,1684.547110,9609.575562,191.425808
805.512376,1665.404530,9628.718142,153.140646
805.514899,1703.689691,9647.860723,287.138712
805.517422,1780.260014,9552.147819,153.140646
805.519945,1665.404530,9628.718142,133.998066
805.522468,1665.404530,9647.860723,210.568389
805.524990,1684.547110,9590.432981,153.140646
805.527513,1684.547110,9647.860723,172.283227
805.530036,1703.689691,9667.003304,210.568389
805.532559,1665.404530,9628.718142,114.855485
805.535082,1684.547110,9609.575562,210.568389
805.537604,1665.404530,9590.432981,229.710970
805.540127,1627.119368,9571.290400,210.568389
805.542650,1684.547110,9647.860723,210.568389
805.545173,1684.547110,9590.432981,172.283227
805.547696,1665.404530,9590.432981,229.710970
805.550218,1703.689691,9571.290400,248.853550
805.552741,1665.404530,9590.432981,229.710970
805.555264,1665.404530,9628.718142,191.425808
805.557787,1837.687757,9552.147819,229.710970
805.560310,1684.547110,9628.718142,172.283227
805.562832,1665.404530,9647.860723,191.425808
805.565355,1780.260014,9590.432981,248.853550
805.567878,1741.974853,9609.575562,133.998066
805.570418,1665.404530,9647.860723,248.853550
805.572958,1741.974853,9609.575562,191.425808
805.575498,1684.547110,9628.718142,114.855485
805.578038,1646.261949,9628.718142,267.996131
805.580578,1722.832272,9628.718142,306.281293
805.583118,1741.974853,9647.860723,133.998066
805.585658,1684.547110,9609.575562,191.425808
805.588198,1761.117434,9590.432981,248.853550
805.590738,1684.547110,9609.575562,153.140646
805.593278,1646.261949,9705.288466,191.425808
805.595818,1703.689691,9628.718142,267.996131
805.598358,1741.974853,9533.005238,153.140646
805.600898,1665.404530,9609.575562,210.568389
805.603437,1684.547110,9705.288466,306.281293
805.605977,1646.261949,9571.290400,153.140646
805.608517,1665.404530,9628.718142,229.710970
805.611057,1722.832272,9647.860723,267.996131
805.613597,1761.117434,9647.860723,191.425808
805.616137,1665.404530,9628.718142,210.568389
805.618677,1722.832272,9686.145885,344.566454
805.621217,1684.547110,9609.575562,191.425808
805.623757,1607.976787,9590.432981,210.568389
805.626297,1722.832272,9686.145885,267.996131
805.628837,1684.547110,9609.575562,191.425808
805.631377,1646.261949,9686.145885,191.425808
805.633917,1741.974853,9667.003304,172.283227
805.636457,1703.689691,9533.005238,210.568389
805.638997,1627.119368,9667.003304,133.998066
805.641537,1703.689691,9647.860723,229.710970
805.644077,1722.832272,9590.432981,248.853550
805.646617,1741.974853,9609.575562,133.998066
805.649157,1665.404530,9628.718142,153.140646
805.651697,1646.261949,9705.288466,191.425808
805.654237,1665.404530,9571.290400,114.855485
805.656777,1684.547110,9628.718142,210.568389
805.659317,1646.261949,9647.860723,287.138712
805.661857,1722.832272,9571.290400,210.568389
805.664397,1646.261949,9686.145885,210.568389
805.666937,1646.261949,9628.718142,267.996131
805.669477,1799.402595,9609.575562,267.996131
805.672028,1665.404530,9628.718142,191.425808
805.674580,1665.404530,9724.431046,248.853550
805.677132,1780.260014,9552.147819,153.140646
805.679684,1741.974853,9647.860723,153.140646
805.682236,1607.976787,9705.288466,248.853550
805.684788,1799.402595,9552.147819,191.425808
805.687340,1741.974853,9647.860723,153.140646
805.689892,1588.834206,9647.860723,287.138712
805.692444,1761.117434,9590.432981,267.996131
805.694995,1722.832272,9628.718142,248.853550
805.697547,1665.404530,9724.431046,191.425808
805.700099,1761.117434,9628.718142,287.138712
805.702651,1780.260014,9552.147819,172.283227
805.705203,1569.691626,9667.003304,191.425808
805.707755,1741.974853,9647.860723,267.996131
805.710307,1780.260014,9609.575562,191.425808
805.712859,1646.261949,9705.288466,191.425808
805.715411,1722.832272,9647.860723,248.853550
805.717963,1780.260014,9647.860723,191.425808
805.720514,1665.404530,9628.718142,210.568389
805.723066,1684.547110,9628.718142,210.568389
805.725618,1780.260014,9552.147819,153.140646
805.728170,1646.261949,9686.145885,248.853550
805.730722,1684.547110,9647.860723,191.425808
805.733274,1761.117434,9552.147819,172.283227
805.735826,1741.974853,9609.575562,210.568389
805.738378,1703.689691,9686.145885,267.996131
805.740930,1665.404530,9552.147819,153.140646
805.743482,1665.404530,9571.290400,153.140646
805.746033,1646.261949,9724.431046,287.138712
805.748585,1665.404530,9590.432981,210.568389
805.751137,1569.691626,9628.718142,210.568389
805.753689,1607.976787,9686.145885,210.568389
805.756241,1741.974853,9609.575562,191.425808
805.758793,1741.974853,9552.147819,172.283227
805.761345,1646.261949,9686.145885,191.425808
805.763897,1646.261949,9609.575562,229.710970
805.766449,1780.260014,9590.432981,248.853550
805.769001,1665.404530,9628.718142,172.283227
805.771552,1665.404530,9609.575562,191.425808
805.774057,1684.547110,9590.432981,114.855485
805.776561,1665.404530,9628.718142,172.283227
805.779066,1722.832272,9590.432981,248.853550
805.781570,1741.974853,9609.575562,210.568389
805.784075,1684.547110,9628.718142,210.568389
805.786579,1665.404530,9628.718142,229.710970
805.789084,1780.260014,9609.575562,153.140646
805.791588,1684.547110,9590.432981,210.568389
805.794093,1569.691626,9686.145885,210.568389
805.796597,1741.974853,9590.432981,191.425808
805.799102,1684.547110,9590.432981,114.855485
805.801606,1665.404530,9628.718142,229.710970
805.804111,1741.974853,9590.432981,248.853550
805.806615,1665.404530,9628.718142,210.568389
805.809119,1646.261949,9667.003304,229.710970
805.811624,1722.832272,9647.860723,267.996131
805.814128,1722.832272,9533.005238,210.568389
805.816633,1607.976787,9667.003304,229.710970
805.819137,1741.974853,9705.288466,325.423874
805.821642,1780.260014,9533.005238,153.140646
805.824146,1665.404530,9686.145885,133.998066
805.826651,1627.119368,9647.860723,287.138712
805.829155,1741.974853,9552.147819,133.998066
805.831660,1607.976787,9628.718142,172.283227
805.834164,1703.689691,9628.718142,248.853550
805.836669,1665.404530,9590.432981,172.283227
805.839173,1684.547110,9628.718142,210.568389
805.841678,1703.689691,9724.431046,210.568389
805.844182,1741.974853,9647.860723,191.425808
805.846687,1646.261949,9609.575562,287.138712
805.849191,1761.117434,9667.003304,267.996131
805.851695,1780.260014,9609.575562,191.425808
805.854200,1703.689691,9724.431046,172.283227
805.856704,1646.261949,9609.575562,229.710970
805.859209,1684.547110,9552.147819,153.140646
805.861713,1780.260014,9590.432981,114.855485
805.864218,1665.404530,9705.288466,172.283227
805.866722,1607.976787,9628.718142,229.710970
805.869227,1684.547110,9609.575562,133.998066
805.871731,1684.547110,9647.860723,191.425808
805.874256,1646.261949,9647.860723,267.996131
805.876781,1684.547110,9686.145885,210.568389
805.879305,1665.404530,9590.432981,153.140646
805.881830,1646.261949,9628.718142,267.996131
805.884355,1741.974853,9590.432981,191.425808
805.886879,1684.547110,9667.003304,133.998066
805.889404,1665.404530,9647.860723,248.853550
805.891929,1684.547110,9552.147819,191.425808
805.894453,1761.117434,9647.860723,133.998066
805.896978,1665.404530,9628.718142,229.710970
805.899503,1684.547110,9609.575562,248.853550
805.902028,1665.404530,9628.718142,172.283227
805.904552,1607.976787,9724.431046,248.853550
805.907077,1741.974853,9647.860723,153.140646
805.909602,1665.404530,9609.575562,210.568389
805.912126,1665.404530,9647.860723,287.138712
805.914651,1741.974853,9609.575562,210.568389
805.917176,1741.974853,9590.432981,133.998066
805.919700,1665.404530,9724.431046,267.996131
805.922225,1818.545176,9590.432981,325.423874
805.924750,1684.547110,9609.575562,133.998066
805.927274,1646.261949,9762.716208,191.425808
805.929799,1684.547110,9628.718142,191.425808
805.932324,1780.260014,9590.432981,133.998066
805.934849,1646.261949,9647.860723,210.568389
805.937373,1722.832272,9590.432981,267.996131
805.939898,1741.974853,9552.147819,153.140646
805.942423,1588.834206,9743.573627,191.425808
805.944947,1703.689691,9628.718142,267.996131
805.947472,1722.832272,9533.005238,191.425808
805.949997,1646.261949,9647.860723,229.710970
805.952521,1684.547110,9667.003304,191.425808
805.955046,1799.402595,9609.575562,153.140646
805.957571,1703.689691,9667.003304,210.568389
805.960095,1684.547110,9609.575562,191.425808
805.962620,1741.974853,9647.860723,210.568389
805.965145,1627.119368,9724.431046,153.140646
805.967670,1665.404530,9609.575562,229.710970
805.970194,1722.832272,9609.575562,172.283227
805.972719,1741.974853,9552.147819,153.140646
805.975258,1588.834206,9686.145885,210.568389
805.977798,1761.117434,9609.575562,287.138712
805.980337,1665.404530,9609.575562,229.710970
805.982876,1627.119368,9590.432981,153.140646
805.985415,1703.689691,9628.718142,267.996131
805.987955,1722.832272,9533.005238,191.425808
805.990494,1722.832272,9743.573627,153.140646
805.993033,1646.261949,9686.145885,248.853550
805.995572,1703.689691,9667.003304,210.568389
805.998112,1684.547110,9628.718142,210.568389
806.000651,1684.547110,9705.288466,287.138712
806.003190,1761.117434,9647.860723,153.140646
806.005729,1607.976787,9686.145885,153.140646
806.008269,1646.261949,9667.003304,210.568389
806.010808,1741.974853,9647.860723,153.140646
806.013347,1703.689691,9609.575562,95.712904
806.015887,1665.404530,9590.432981,229.710970
806.018426,1741.974853,9628.718142,210.568389
806.020965,1684.547110,9590.432981,229.710970
806.023504,1646.261949,9705.288466,248.853550
806.026044,1741.974853,9609.575562,267.996131
806.028583,1780.260014,9609.575562,210.568389
806.031122,1550.549045,9686.145885,191.425808
806.033661,1703.689691,9686.145885,287.138712
806.036201,1722.832272,9533.005238,153.140646
806.038740,1627.119368,9647.860723,287.138712
806.041279,1741.974853,9552.147819,248.853550
806.043818,1780.260014,9533.005238,172.283227
806.046358,1646.261949,9667.003304,229.710970
806.048897,1741.974853,9628.718142,267.996131
806.051436,1780.260014,9609.575562,153.140646
806.053976,1607.976787,9667.003304,267.996131
806.056515,1761.117434,9552.147819,325.423874
806.059054,1799.402595,9533.005238,191.425808
806.061593,1646.261949,9609.575562,210.568389
806.064133,1703.689691,9628.718142,267.996131
806.066672,1703.689691,9533.005238,172.283227
806.069211,1607.976787,9705.288466,229.710970
806.071750,1722.832272,9647.860723,248.853550
806.074290,1780.260014,9609.575562,153.140646
806.076841,1627.119368,9705.288466,248.853550
806.079392,1665.404530,9590.432981,229.710970
806.081943,1665.404530,9552.147819,229.710970
806.084495,1684.547110,9609.575562,172.283227
806.087046,1703.689691,9686.145885,153.140646
806.089597,1607.976787,9590.432981,191.425808
806.092148,1741.974853,9647.860723,172.283227
806.094700,1646.261949,9686.145885,191.425808
806.097251,1665.404530,9628.718142,229.710970
806.099802,1684.547110,9647.860723,133.998066
806.102353,1627.119368,9686.145885,191.425808
806.104905,1703.689691,9590.432981,248.853550
806.107456,1741.974853,9552.147819,172.283227
806.110007,1665.404530,9628.718142,153.140646
806.112558,1703.689691,9628.718142,248.853550
806.115110,1665.404530,9628.718142,172.283227
806.117661,1607.976787,9647.860723,210.568389
806.120212,1703.689691,9590.432981,267.996131
806.122763,1741.974853,9609.575562,191.425808
806.125315,1684.547110,9628.718142,210.568389
806.127866,1741.974853,9647.860723,191.425808
806.130417,1741.974853,9647.860723,191.425808
806.132968,1665.404530,9628.718142,210.568389
806.135519,1607.976787,9628.718142,229.710970
806.138071,1703.689691,9647.860723,306.281293
806.140622,1741.974853,9609.575562,133.998066
806.143173,1607.976787,9628.718142,229.710970
806.145724,1799.402595,9609.575562,210.568389
806.148276,1780.260014,9609.575562,210.568389
806.150827,1665.404530,9686.145885,210.568389
806.153378,1722.832272,9590.432981,306.281293
806.155929,1780.260014,9552.147819,172.283227
806.158481,1569.691626,9686.145885,191.425808
806.161032,1703.689691,9628.718142,267.996131
806.163583,1780.260014,9552.147819,191.425808
806.166134,1665.404530,9686.145885,210.568389
806.168686,1741.974853,9647.860723,287.138712
806.171237,1684.547110,9571.290400,229.710970
806.173788,1531.406464,9647.860723,287.138712
806.176339,1703.689691,9628.718142,363.709035
806.178899,1818.545176,9552.147819,210.568389
806.181458,1531.406464,9686.145885,172.283227
806.184018,1761.117434,9628.718142,267.996131
806.186577,1703.689691,9533.005238,153.140646
806.189137,1646.261949,9686.145885,191.425808
806.191696,1703.689691,9628.718142,267.996131
806.194256,1684.547110,9609.575562,153.140646
806.196815,1569.691626,9552.147819,191.425808
806.199375,1665.404530,9705.288466,172.283227
806.201934,1665.404530,9590.432981,229.710970
806.204494,1627.119368,9571.290400,114.855485
806.207053,1646.261949,9667.003304,229.710970
806.209613,1665.404530,9647.860723,248.853550
806.212172,1741.974853,9609.575562,210.568389
806.214732,1627.119368,9628.718142,153.140646
806.217291,1818.545176,9667.003304,229.710970
806.219851,1741.974853,9647.860723,133.998066
806.222410,1665.404530,9647.860723,172.283227
806.224970,1646.261949,9609.575562,287.138712
806.227529,1684.547110,9590.432981,114.855485
806.230089,1646.261949,9705.288466,191.425808
806.232649,1684.547110,9609.575562,191.425808
806.235208,1741.974853,9647.860723,133.998066
806.237768,1665.404530,9743.573627,248.853550
806.240327,1627.119368,9552.147819,229.710970
806.242887,1646.261949,9628.718142,267.996131
806.245446,1646.261949,9686.145885,172.283227
806.248006,1627.119368,9647.860723,229.710970
806.250565,1684.547110,9552.147819,229.710970
806.253125,1799.402595,9590.432981,153.140646
806.255684,1646.261949,9647.860723,306.281293
806.258244,1780.260014,9609.575562,248.853550
806.260803,1761.117434,9609.575562,153.140646
806.263363,1665.404530,9705.288466,172.283227
806.265922,1722.832272,9628.718142,325.423874
806.268482,1684.547110,9590.432981,172.283227
806.271041,1627.119368,9762.716208,248.853550
806.273601,1741.974853,9647.860723,248.853550
806.276160,1780.260014,9475.577496,210.568389
806.278720,1684.547110,9667.003304,191.425808
806.281285,1703.689691,9686.145885,248.853550
806.283850,1799.402595,9609.575562,153.140646
806.286415,1646.261949,9705.288466,172.283227
806.288980,1703.689691,9628.718142,287.138712
806.291545,1684.547110,9609.575562,133.998066
806.294110,1607.976787,9628.718142,153.140646
806.296675,1741.974853,9571.290400,229.710970
806.299240,1761.117434,9590.432981,191.425808
806.301805,1627.119368,9667.003304,191.425808
806.304370,1646.261949,9724.431046,287.138712
806.306936,1684.547110,9609.575562,191.425808
806.309501,1646.261949,9513.862658,191.425808
806.312066,1646.261949,9647.860723,229.710970
806.314631,1665.404530,9686.145885,210.568389
806.317196,1665.404530,9533.005238,133.998066
806.319761,1646.261949,9609.575562,229.710970
806.322326,1684.547110,9609.575562,210.568389
806.324891,1703.689691,9667.003304,191.425808
806.327456,1665.404530,9590.432981,210.568389
806.330021,1722.832272,9609.575562,191.425808
806.332586,1741.974853,9609.575562,153.140646
806.335151,1627.119368,9628.718142,229.710970
806.337717,1684.547110,9609.575562,191.425808
806.340282,1684.547110,9609.575562,172.283227
806.342847,1665.404530,9628.718142,210.568389
806.345412,1684.547110,9647.860723,248.853550
806.347977,1684.547110,9647.860723,172.283227
806.350542,1607.976787,9628.718142,210.568389
806.353107,1665.404530,9667.003304,248.853550
806.355672,1665.404530,9590.432981,114.855485
806.358237,1646.261949,9705.288466,172.283227
806.360802,1588.834206,9590.432981,210.568389
806.363367,1780.260014,9609.575562,191.425808
806.365932,1741.974853,9552.147819,191.425808
806.368497,1646.261949,9647.860723,229.710970
806.371063,1761.117434,9590.432981,248.853550
806.373628,1703.689691,9533.005238,229.710970
806.376193,1703.689691,9667.003304,287.138712
806.378758,1665.404530,9590.432981,229.710970
806.381323,1780.260014,9533.005238,153.140646
