#time,accel_x,accel_y,accel_z
670.482871,1703.689691,9647.860723,229.710970
670.485434,1665.404530,9667.003304,267.996131
670.487997,1703.689691,9628.718142,267.996131
670.490560,1646.261949,9667.003304,287.138712
670.493123,1722.832272,9628.718142,267.996131
670.495686,1703.689691,9686.145885,191.425808
670.498249,1722.832272,9705.288466,229.710970
670.500809,1703.689691,9628.718142,306.281293
670.503370,1741.974853,9590.432981,172.283227
670.505930,1741.974853,9686.145885,287.138712
670.508491,1665.404530,9686.145885,229.710970
670.511051,1684.547110,9609.575562,191.425808
670.513612,1741.974853,9628.718142,248.853550
670.516172,1741.974853,9628.718142,229.710970
670.518733,1684.547110,9571.290400,210.568389
670.521293,1665.404530,9647.860723,153.140646
670.523854,1703.689691,9667.003304,210.568389
670.526414,1722.832272,9609.575562,153.140646
670.528975,1684.547110,9686.145885,229.710970
670.531535,1646.261949,9647.860723,287.138712
670.534096,1684.547110,9609.575562,153.140646
670.536656,1722.832272,9628.718142,287.138712
670.539217,1684.547110,9647.860723,248.853550
670.541777,1703.689691,9590.432981,267.996131
670.544338,1607.976787,9590.432981,191.425808
670.546898,1646.261949,9628.718142,191.425808
670.549459,1684.547110,9647.860723,248.853550
670.552019,1607.976787,9647.860723,210.568389
670.554580,1722.832272,9590.432981,325.423874
670.557140,1684.547110,9647.860723,153.140646
670.559701,1665.404530,9609.575562,210.568389
670.562262,1684.547110,9628.718142,191.425808
670.564822,1722.832272,9590.432981,248.853550
670.567383,1703.689691,9743.573627,210.568389
670.569943,1684.547110,9667.003304,248.853550
670.572504,1665.404530,9686.145885,210.568389
670.575064,1665.404530,9590.432981,172.283227
670.577625,1684.547110,9647.860723,248.853550
670.580185,1665.404530,9628.718142,287.138712
670.582746,1684.547110,9628.718142,153.140646
670.585306,1722.832272,9667.003304,248.853550
670.587867,1684.547110,9647.860723,210.568389
670.590427,1684.547110,9667.003304,191.425808
670.592988,1665.404530,9667.003304,325.423874
670.595548,1684.547110,9609.575562,210.568389
670.598109,1684.547110,9628.718142,229.710970
670.600669,1741.974853,9609.575562,191.425808
670.603227,1665.404530,9667.003304,287.138712
670.605785,1741.974853,9609.575562,267.996131
670.608343,1780.260014,9609.575562,191.425808
670.610901,1646.261949,9724.431046,306.281293
670.613458,1741.974853,9628.718142,191.425808
670.616016,1722.832272,9647.860723,287.138712
670.618574,1607.976787,9590.432981,229.710970
670.621132,1722.832272,9590.432981,325.423874
670.623690,1684.547110,9628.718142,229.710970
670.626248,1646.261949,9686.145885,210.568389
670.628806,1684.547110,9552.147819,191.425808
670.631363,1684.547110,9647.860723,191.425808
670.633921,1722.832272,9628.718142,267.996131
670.636479,1665.404530,9628.718142,210.568389
670.639037,1741.974853,9552.147819,210.568389
670.641595,1684.547110,9762.716208,306.281293
670.644153,1722.832272,9609.575562,191.425808
670.646711,1703.689691,9609.575562,191.425808
670.649268,1627.119368,9647.860723,229.710970
670.651826,1741.974853,9590.432981,191.425808
670.654384,1684.547110,9647.860723,172.283227
670.656942,1684.547110,9686.145885,229.710970
670.659500,1761.117434,9628.718142,287.138712
670.662058,1741.974853,9571.290400,248.853550
670.664615,1627.119368,9647.860723,229.710970
670.667173,1722.832272,9590.432981,248.853550
670.669731,1741.974853,9609.575562,153.140646
670.672289,1646.261949,9667.003304,248.853550
670.674847,1703.689691,9590.432981,248.853550
670.677405,1722.832272,9609.575562,172.283227
670.679963,1703.689691,9628.718142,306.281293
670.682520,1780.260014,9667.003304,172.283227
670.685078,1818.545176,9590.432981,248.853550
670.687636,1665.404530,9686.145885,210.568389
670.690194,1741.974853,9628.718142,287.138712
670.692752,1741.974853,9609.575562,191.425808
670.695310,1722.832272,9552.147819,191.425808
670.697868,1761.117434,9667.003304,287.138712
670.700425,1684.547110,9609.575562,191.425808
670.702983,1646.261949,9647.860723,229.710970
670.705539,1684.547110,9705.288466,306.281293
670.708096,1741.974853,9647.860723,229.710970
670.710652,1627.119368,9686.145885,153.140646
670.713208,1703.689691,9667.003304,210.568389
670.715765,1646.261949,9609.575562,287.138712
670.718321,1646.261949,9686.145885,153.140646
670.720877,1684.547110,9628.718142,248.853550
670.723434,1703.689691,9667.003304,229.710970
670.725990,1684.547110,9571.290400,210.568389
670.728546,1741.974853,9686.145885,287.138712
670.731103,1684.547110,9571.290400,172.283227
670.733659,1741.974853,9609.575562,267.996131
670.736215,1703.689691,9628.718142,267.996131
670.738771,1722.832272,9686.145885,267.996131
670.741328,1665.404530,9628.718142,191.425808
670.743884,1684.547110,9647.860723,191.425808
670.746440,1665.404530,9667.003304,325.423874
670.748997,1780.260014,9609.575562,248.853550
670.751553,1607.976787,9628.718142,172.283227
670.754109,1646.261949,9609.575562,306.281293
670.756666,1684.547110,9628.718142,191.425808
670.759222,1684.547110,9628.718142,210.568389
670.761778,1665.404530,9705.288466,229.710970
670.764335,1761.117434,9609.575562,248.853550
670.766891,1741.974853,9647.860723,153.140646
670.769447,1684.547110,9647.860723,267.996131
670.772003,1722.832272,9609.575562,287.138712
670.774560,1780.260014,9628.718142,191.425808
670.777116,1703.689691,9743.573627,287.138712
670.779672,1607.976787,9590.432981,210.568389
670.782229,1741.974853,9667.003304,191.425808
670.784785,1684.547110,9647.860723,248.853550
670.787341,1684.547110,9609.575562,191.425808
670.789898,1684.547110,9647.860723,191.425808
670.792454,1627.119368,9609.575562,287.138712
670.795010,1665.404530,9686.145885,287.138712
670.797567,1684.547110,9628.718142,210.568389
670.800123,1703.689691,9609.575562,287.138712
670.802679,1684.547110,9609.575562,248.853550
670.805236,1761.117434,9590.432981,191.425808
670.807733,1703.689691,9667.003304,306.281293
670.810231,1741.974853,9686.145885,229.710970
670.812728,1741.974853,9552.147819,191.425808
670.815226,1703.689691,9705.288466,306.281293
670.817723,1780.260014,9647.860723,248.853550
670.820221,1684.547110,9590.432981,210.568389
670.822718,1703.689691,9686.145885,306.281293
670.825216,1665.404530,9667.003304,267.996131
670.827713,1741.974853,9647.860723,172.283227
670.830211,1722.832272,9705.288466,287.138712
670.832708,1703.689691,9628.718142,248.853550
670.835206,1741.974853,9590.432981,229.710970
670.837703,1703.689691,9628.718142,267.996131
670.840201,1665.404530,9628.718142,210.568389
670.842698,1703.689691,9628.718142,248.853550
670.845196,1684.547110,9686.145885,210.568389
670.847693,1741.974853,9590.432981,191.425808
670.850191,1780.260014,9609.575562,172.283227
670.852688,1703.689691,9609.575562,287.138712
670.855186,1684.547110,9724.431046,210.568389
670.857683,1722.832272,9609.575562,191.425808
670.860181,1741.974853,9686.145885,229.710970
670.862678,1607.976787,9628.718142,210.568389
670.865176,1665.404530,9609.575562,210.568389
670.867673,1703.689691,9628.718142,248.853550
670.870171,1703.689691,9628.718142,191.425808
670.872668,1722.832272,9628.718142,191.425808
670.875166,1684.547110,9686.145885,229.710970
670.877663,1703.689691,9705.288466,191.425808
670.880161,1646.261949,9609.575562,287.138712
670.882658,1684.547110,9647.860723,191.425808
670.885156,1607.976787,9647.860723,287.138712
670.887653,1665.404530,9686.145885,229.710970
670.890151,1684.547110,9647.860723,172.283227
670.892648,1703.689691,9628.718142,248.853550
670.895146,1741.974853,9609.575562,248.853550
670.897644,1703.689691,9590.432981,248.853550
670.900141,1646.261949,9724.431046,191.425808
670.902639,1665.404530,9590.432981,287.138712
670.905136,1741.974853,9647.860723,210.568389
670.907646,1761.117434,9609.575562,210.568389
670.910157,1799.402595,9628.718142,248.853550
670.912667,1684.547110,9590.432981,172.283227
670.915177,1818.545176,9724.431046,172.283227
670.917687,1646.261949,9628.718142,267.996131
670.920198,1684.547110,9571.290400,248.853550
670.922708,1761.117434,9647.860723,153.140646
670.925218,1665.404530,9628.718142,229.710970
670.927728,1741.974853,9647.860723,153.140646
670.930239,1665.404530,9628.718142,248.853550
670.932749,1646.261949,9647.860723,287.138712
670.935259,1684.547110,9609.575562,248.853550
670.937769,1684.547110,9628.718142,248.853550
670.940280,1684.547110,9647.860723,210.568389
670.942790,1741.974853,9628.718142,248.853550
670.945300,1684.547110,9609.575562,191.425808
670.947811,1646.261949,9686.145885,287.138712
670.950321,1703.689691,9686.145885,191.425808
670.952831,1703.689691,9724.431046,229.710970
670.955341,1588.834206,9647.860723,287.138712
670.957852,1818.545176,9571.290400,325.423874
670.960362,1703.689691,9667.003304,210.568389
670.962872,1607.976787,9762.716208,248.853550
670.965382,1780.260014,9628.718142,306.281293
670.967893,1665.404530,9513.862658,210.568389
670.970403,1646.261949,9667.003304,287.138712
670.972913,1703.689691,9686.145885,267.996131
670.975423,1703.689691,9590.432981,191.425808
670.977934,1761.117434,9647.860723,248.853550
670.980444,1703.689691,9609.575562,287.138712
670.982954,1722.832272,9705.288466,248.853550
670.985464,1741.974853,9686.145885,287.138712
670.987975,1665.404530,9590.432981,210.568389
670.990485,1722.832272,9628.718142,210.568389
670.992995,1722.832272,9590.432981,306.281293
670.995506,1703.689691,9590.432981,306.281293
670.998016,1780.260014,9647.860723,191.425808
671.000526,1665.404530,9647.860723,191.425808
671.003036,1761.117434,9686.145885,287.138712
671.005547,1684.547110,9609.575562,191.425808
671.008066,1665.404530,9686.145885,229.710970
671.010585,1703.689691,9590.432981,306.281293
671.013105,1684.547110,9609.575562,172.283227
671.015624,1741.974853,9686.145885,267.996131
671.018144,1665.404530,9667.003304,306.281293
671.020663,1646.261949,9609.575562,229.710970
671.023182,1627.119368,9590.432981,210.568389
671.025702,1665.404530,9628.718142,210.568389
671.028221,1684.547110,9609.575562,172.283227
671.030741,1684.547110,9647.860723,153.140646
671.033260,1703.689691,9628.718142,248.853550
671.035780,1684.547110,9686.145885,229.710970
671.038299,1627.119368,9705.288466,172.283227
671.040818,1684.547110,9647.860723,191.425808
671.043338,1741.974853,9609.575562,210.568389
671.045857,1646.261949,9686.145885,191.425808
671.048377,1665.404530,9705.288466,229.710970
671.050896,1665.404530,9628.718142,210.568389
671.053415,1665.404530,9590.432981,153.140646
671.055935,1741.974853,9647.860723,267.996131
671.058454,1665.404530,9590.432981,172.283227
671.060974,1627.119368,9686.145885,153.140646
671.063493,1665.404530,9705.288466,229.710970
671.066012,1741.974853,9609.575562,210.568389
671.068532,1607.976787,9628.718142,191.425808
671.071051,1684.547110,9647.860723,191.425808
671.073571,1646.261949,9609.575562,287.138712
671.076090,1722.832272,9647.860723,191.425808
671.078610,1703.689691,9686.145885,248.853550
671.081129,1684.547110,9552.147819,210.568389
671.083648,1665.404530,9571.290400,229.710970
671.086168,1684.547110,9667.003304,210.568389
671.088687,1741.974853,9724.431046,210.568389
671.091207,1665.404530,9590.432981,172.283227
671.093726,1741.974853,9628.718142,267.996131
671.096245,1627.119368,9647.860723,191.425808
671.098765,1684.547110,9647.860723,248.853550
671.101284,1684.547110,9647.860723,210.568389
671.103804,1703.689691,9628.718142,267.996131
671.106323,1741.974853,9647.860723,229.710970
671.108849,1722.832272,9686.145885,210.568389
671.111376,1665.404530,9686.145885,229.710970
671.113902,1684.547110,9724.431046,267.996131
671.116428,1684.547110,9647.860723,153.140646
671.118955,1684.547110,9667.003304,191.425808
671.121481,1722.832272,9590.432981,267.996131
671.124008,1684.547110,9590.432981,210.568389
671.126534,1607.976787,9724.431046,287.138712
671.129060,1741.974853,9609.575562,191.425808
671.131587,1703.689691,9552.147819,229.710970
671.134113,1607.976787,9724.431046,248.853550
671.136639,1646.261949,9647.860723,287.138712
671.139166,1684.547110,9628.718142,210.568389
671.141692,1684.547110,9686.145885,229.710970
671.144218,1761.117434,9590.432981,248.853550
671.146745,1684.547110,9552.147819,191.425808
671.149271,1646.261949,9724.431046,229.710970
671.151797,1703.689691,9647.860723,229.710970
671.154324,1780.260014,9609.575562,133.998066
671.156850,1761.117434,9647.860723,325.423874
671.159376,1722.832272,9628.718142,248.853550
671.161903,1722.832272,9628.718142,248.853550
671.164429,1646.261949,9647.860723,287.138712
671.166956,1703.689691,9628.718142,267.996131
671.169482,1741.974853,9647.860723,248.853550
671.172008,1703.689691,9628.718142,248.853550
671.174535,1741.974853,9647.860723,306.281293
671.177061,1741.974853,9609.575562,191.425808
671.179587,1665.404530,9686.145885,267.996131
671.182114,1741.974853,9762.716208,229.710970
671.184640,1703.689691,9628.718142,248.853550
671.187166,1684.547110,9647.860723,248.853550
671.189693,1703.689691,9628.718142,248.853550
671.192219,1684.547110,9667.003304,267.996131
671.194745,1665.404530,9590.432981,210.568389
671.197272,1665.404530,9590.432981,229.710970
671.199798,1780.260014,9647.860723,248.853550
671.202324,1684.547110,9609.575562,172.283227
671.204851,1703.689691,9628.718142,267.996131
671.207377,1741.974853,9609.575562,191.425808
671.209910,1646.261949,9628.718142,191.425808
671.212443,1722.832272,9667.003304,210.568389
671.214976,1684.547110,9647.860723,248.853550
671.217509,1684.547110,9628.718142,210.568389
671.220042,1684.547110,9686.145885,229.710970
671.222575,1780.260014,9647.860723,267.996131
671.225108,1627.119368,9590.432981,191.425808
671.227641,1703.689691,9647.860723,248.853550
671.230173,1684.547110,9628.718142,153.140646
671.232706,1684.547110,9686.145885,172.283227
671.235239,1703.689691,9667.003304,229.710970
671.237772,1684.547110,9667.003304,191.425808
671.240305,1665.404530,9686.145885,287.138712
671.242838,1684.547110,9590.432981,229.710970
671.245371,1741.974853,9647.860723,267.996131
671.247904,1761.117434,9609.575562,153.140646
671.250437,1741.974853,9647.860723,248.853550
671.252970,1741.974853,9647.860723,267.996131
671.255503,1741.974853,9647.860723,248.853550
671.258036,1684.547110,9647.860723,191.425808
671.260569,1646.261949,9762.716208,248.853550
671.263102,1684.547110,9628.718142,287.138712
671.265634,1684.547110,9647.860723,267.996131
671.268167,1665.404530,9647.860723,267.996131
671.270700,1761.117434,9609.575562,248.853550
671.273233,1741.974853,9609.575562,191.425808
671.275766,1665.404530,9628.718142,229.710970
671.278299,1665.404530,9628.718142,210.568389
671.280832,1761.117434,9609.575562,248.853550
671.283365,1627.119368,9667.003304,229.710970
671.285898,1741.974853,9609.575562,248.853550
671.288431,1684.547110,9647.860723,153.140646
671.290964,1646.261949,9647.860723,287.138712
671.293497,1722.832272,9724.431046,248.853550
671.296030,1684.547110,9647.860723,172.283227
671.298562,1703.689691,9667.003304,287.138712
671.301095,1703.689691,9628.718142,248.853550
671.303628,1741.974853,9647.860723,191.425808
671.306161,1627.119368,9609.575562,229.710970
671.308694,1684.547110,9686.145885,287.138712
671.311232,1684.547110,9609.575562,153.140646
671.313769,1646.261949,9667.003304,287.138712
671.316306,1761.117434,9686.145885,248.853550
671.318844,1665.404530,9609.575562,172.283227
671.321381,1646.261949,9609.575562,267.996131
671.323918,1646.261949,9609.575562,287.138712
671.326456,1722.832272,9590.432981,248.853550
671.328993,1665.404530,9724.431046,325.423874
671.331531,1741.974853,9628.718142,267.996131
671.334068,1780.260014,9609.575562,172.283227
671.336605,1665.404530,9667.003304,267.996131
671.339143,1684.547110,9647.860723,248.853550
671.341680,1722.832272,9609.575562,133.998066
671.344218,1703.689691,9628.718142,267.996131
671.346755,1684.547110,9647.860723,191.425808
671.349292,1722.832272,9647.860723,191.425808
671.351830,1741.974853,9647.860723,172.283227
671.354367,1761.117434,9590.432981,248.853550
671.356904,1722.832272,9628.718142,248.853550
671.359442,1646.261949,9686.145885,153.140646
671.361979,1703.689691,9686.145885,248.853550
671.364517,1703.689691,9628.718142,248.853550
671.367054,1703.689691,9628.718142,267.996131
671.369591,1684.547110,9705.288466,287.138712
671.372129,1684.547110,9590.432981,229.710970
671.374666,1684.547110,9590.432981,191.425808
671.377203,1646.261949,9667.003304,229.710970
671.379741,1646.261949,9609.575562,229.710970
671.382278,1665.404530,9628.718142,191.425808
671.384816,1703.689691,9628.718142,248.853550
671.387353,1684.547110,9609.575562,248.853550
671.389890,1684.547110,9647.860723,191.425808
671.392428,1684.547110,9628.718142,248.853550
671.394965,1665.404530,9590.432981,191.425808
671.397503,1703.689691,9628.718142,248.853550
671.400040,1646.261949,9762.716208,248.853550
671.402577,1665.404530,9686.145885,210.568389
671.405115,1684.547110,9705.288466,229.710970
671.407652,1741.974853,9647.860723,191.425808
671.410189,1665.404530,9628.718142,191.425808
